time,ax,ay,az,gx,gy,gz
1786181234.055607796,-0.010521283,-0.001322764,0.99657011,-0.009816352,0.006673628,0.015602268
1786181234.059489250,-0.00124394,-0.000102061,0.990710735,0.004032086,0.002412571,0.017732795
1786181234.065478086,-0.000023237,-0.005961436,0.98875761,0.001901557,0.000282042,0.015602268
1786181234.069815159,-0.007591596,-0.004984874,0.995105267,0.00509735,-0.000783224,0.019863326
1786181234.079503298,-0.025413861,-0.003031749,0.993640423,0.00509735,0.002412571,0.018798061
1786181234.099876881,0.006812701,-0.009379406,0.985827923,0.00509735,-0.001848487,0.01666753
1786181234.109767675,-0.023216596,-0.004984874,1.003650188,0.004032086,0.000282042,0.015602268
1786181234.115498543,-0.031029096,-0.001078624,0.99657011,0.002966821,0.002412571,0.018798061
1786181234.119619846,-0.025902143,-0.001078624,0.997790813,-0.000228972,0.003477834,0.012406472
1786181234.125505447,-0.00515019,0.001118642,0.994616985,0.008293143,0.002412571,0.026254911
1786181234.129745007,0.008521685,-0.001811046,0.989734173,-0.001294237,0.0045431,0.01666753
1786181234.135512829,0.009498248,-0.005961436,0.985339642,0.001901557,0.000282042,0.018798061
1786181234.139526367,-0.003197065,-0.006205577,0.993396282,-0.000228972,-0.000783224,0.012406472
1786181234.145362616,-0.019554486,-0.00352003,1.001697063,0.001901557,0.000282042,0.015602268
1786181234.149671555,-0.027855268,-0.003031749,0.995593548,0.004032086,0.000282042,0.015602268
1786181234.155489206,-0.023460736,-0.004740733,0.99632597,-0.000228972,0.003477834,0.018798061
1786181234.159706831,-0.002220503,-0.001811046,0.99266386,0.006162615,0.0045431,0.025189646
1786181234.165493727,0.008765826,-0.003275889,0.991199017,-0.005555294,0.005608363,0.01134121
1786181234.169733286,0.003394732,-0.006693858,0.987781048,-0.000228972,0.000282042,0.014537003
1786181234.175483704,-0.01296269,-0.005229014,0.995593548,0.007227879,-0.001848487,0.014537003
1786181234.179797888,-0.027855268,-0.001322764,1.003894329,-0.000228972,0.002412571,0.01666753
1786181234.185483932,-0.031029096,-0.000590343,0.995105267,-0.005555294,0.0045431,0.020928588
1786181234.189759731,-0.018577924,-0.001566905,0.993640423,-0.000228972,0.003477834,0.020928588
1786181234.195493221,0.006080279,-0.000590343,0.991443157,-0.000228972,0.005608363,0.018798061
1786181234.199926615,0.017310748,-0.00352003,0.989734173,0.002966821,0.003477834,0.017732795
1786181234.205504894,0.006324419,-0.007182139,0.987781048,0.000836292,0.001347305,0.015602268
1786181234.209739447,-0.013939252,-0.005961436,0.998279095,0.000836292,-0.001848487,0.014537003
1786181234.215524197,-0.030052533,-0.003031749,1.002429485,-0.00449003,0.002412571,0.015602268
1786181234.219686270,-0.033226363,-0.003275889,0.998034954,-0.001294237,0.003477834,0.018798061
1786181234.225484610,-0.018822065,-0.003275889,0.993152142,-0.000228972,0.003477834,0.019863326
1786181234.229781151,0.003883013,-0.000834483,0.992175579,-0.002359501,0.0045431,0.017732795
1786181234.235511303,0.01438106,-0.000590343,0.989978313,0.011488937,0.000282042,0.023059119
1786181234.239639521,0.002174029,-0.006449718,0.98875761,0.012554201,-0.001848487,0.017732795
1786181234.245500803,-0.015404096,-0.003764171,0.995593548,0.001901557,-0.000783224,0.01134121
1786181234.249692440,-0.027855268,-0.003275889,1.003894329,-0.003424766,0.003477834,0.015602268
1786181234.255512714,-0.02468144,-0.000834483,0.995105267,-0.005555294,0.0045431,0.010275945
1786181234.259491205,-0.011497846,-0.006449718,0.989734173,0.002966821,0.003477834,0.025189646
1786181234.265499115,0.008765826,-0.001078624,0.992175579,0.004032086,0.002412571,0.015602268
1786181234.269705057,0.011207232,-0.004740733,0.991687298,0.004032086,0.003477834,0.013471738
1786181234.275507689,-0.004661909,-0.006693858,0.991687298,-0.00449003,0.002412571,0.010275945
1786181234.279594898,-0.022972455,-0.005473155,0.998523235,0.007227879,-0.001848487,0.019863326
1786181234.285500765,-0.032249801,-0.001566905,1.003650188,0.004032086,0.001347305,0.014537003
1786181234.289761305,-0.026634565,-0.001322764,0.994372845,0.00509735,0.005608363,0.019863326
1786181234.295483828,-0.008568158,-0.002787608,0.990466595,0.001901557,0.005608363,0.020928588
1786181234.299724817,0.01047481,-0.000590343,0.991199017,-0.000228972,0.005608363,0.015602268
1786181234.305497408,0.013648639,-0.002787608,0.991443157,0.002966821,0.003477834,0.015602268
1786181234.309963465,-0.001732221,-0.006449718,0.989245892,0.00509735,-0.000783224,0.01666753
1786181234.315506220,-0.018822065,-0.006205577,0.994372845,0.000836292,-0.000783224,0.017732795
1786181234.319545984,-0.026390424,-0.003031749,1.000964642,-0.00449003,0.003477834,0.012406472
1786181234.325495720,-0.023460736,-0.00352003,0.995105267,-0.00662056,0.006673628,0.018798061
1786181234.329789639,-0.011497846,-0.006205577,0.991687298,0.002966821,0.003477834,0.019863326
1786181234.335578918,0.000709185,-0.001322764,0.995593548,-0.00449003,0.0045431,0.018798061
1786181234.339669704,0.001685747,-0.001566905,0.994616985,-0.00449003,0.0045431,0.014537003
1786181234.345482349,-0.007591596,-0.003275889,0.991931438,-0.005555294,0.0045431,0.01666753
1786181234.349874020,-0.01686894,-0.004008311,0.994128704,-0.010881618,0.002412571,0.015602268
1786181234.355154514,-0.018089643,-0.001322764,0.997790813,-0.001294237,0.003477834,0.017732795
1786181234.359747648,-0.012230268,-0.004740733,0.992175579,-0.00449003,0.005608363,0.012406472
1786181234.365503311,-0.00515019,-0.004984874,0.989734173,0.002966821,0.002412571,0.017732795
1786181234.369505644,0.000953326,-0.00352003,0.995349407,-0.003424766,0.002412571,0.01666753
1786181234.375498533,0.000709185,-0.001566905,0.995593548,0.006162615,0.000282042,0.017732795
1786181234.379738331,-0.011497846,-0.004496593,0.99266386,0.007227879,-0.000783224,0.019863326
1786181234.385484457,-0.02101933,-0.005473155,0.99657011,0.009358408,-0.001848487,0.020928588
1786181234.389656782,-0.02101933,-0.002055186,1.00047636,0.002966821,0.000282042,0.015602268
1786181234.395483971,-0.014915815,-0.002787608,0.994372845,-0.00449003,0.003477834,0.013471738
1786181234.399635792,-0.00905644,-0.00352003,0.991687298,-0.001294237,0.0045431,0.014537003
1786181234.405502558,-0.00124394,0.00038622,0.994616985,0.004032086,0.002412571,0.020928588
1786181234.409826040,0.001197466,-0.000834483,0.995593548,0.001901557,0.003477834,0.01666753
1786181234.415484905,-0.004661909,-0.004984874,0.989734173,0.001901557,0.002412571,0.018798061
1786181234.419608355,-0.011497846,-0.005473155,0.991687298,0.002966821,0.001347305,0.01666753
1786181234.425606012,-0.014427533,-0.004496593,0.999499798,-0.005555294,0.003477834,0.013471738
1786181234.429595232,-0.014671674,-0.004252452,0.994128704,0.011488937,0.000282042,0.017732795
1786181234.435491323,-0.015159955,-0.005961436,0.994616985,-0.002359501,0.002412571,0.013471738
1786181234.439709187,-0.011009565,0.000142079,0.99632597,0.002966821,0.000282042,0.019863326
1786181234.445495367,-0.005638471,0.000142079,0.995349407,-0.003424766,0.003477834,0.012406472
1786181234.449723244,-0.006370893,-0.001566905,0.990466595,-0.001294237,0.003477834,0.014537003
1786181234.455481291,-0.007591596,-0.004984874,0.990222454,-0.00662056,0.002412571,0.01134121
1786181234.459618807,-0.011009565,-0.003764171,0.998034954,-0.00449003,0.000282042,0.015602268
1786181234.465493917,-0.01320683,-0.004496593,0.995349407,0.010423672,0.000282042,0.018798061
1786181234.469871044,-0.013450971,-0.00352003,0.992175579,-0.00449003,0.003477834,0.01666753
1786181234.475283623,-0.010521283,-0.001811046,0.998279095,0.004032086,0.002412571,0.017732795
1786181234.479642630,-0.003197065,-0.001811046,0.99241972,-0.002359501,0.0045431,0.014537003
1786181234.485504150,-0.003197065,-0.003764171,0.989734173,0.002966821,0.000282042,0.01666753
1786181234.489586353,-0.003197065,-0.003764171,0.989734173,-0.00662056,0.001347305,0.015602268
1786181234.495497465,-0.014671674,-0.003031749,0.999499798,-0.001294237,0.002412571,0.01666753
1786181234.499856234,-0.020042768,-0.00352003,0.997058392,0.00509735,0.001347305,0.017732795
1786181234.505492449,-0.022484174,-0.002299327,0.994128704,0.000836292,0.002412571,0.015602268
1786181234.509630680,-0.022484174,-0.002299327,0.994128704,0.004032086,0.003477834,0.017732795
1786181234.515484810,0.001685747,0.001851064,0.990954876,0.006162615,0.003477834,0.023059119
1786181234.520063877,0.004371294,-0.003275889,0.988269329,0.00509735,0.001347305,0.018798061
1786181234.525336266,0.000953326,-0.008402843,0.987292767,0.000836292,0.001347305,0.019863326
1786181234.529565811,0.000953326,-0.008402843,0.987292767,0.000836292,0.001347305,0.019863326
1786181234.535497189,-0.021263471,-0.004008311,0.997790813,0.002966821,0.001347305,0.01666753
1786181234.539773703,-0.026634565,-0.004984874,0.994372845,0.002966821,0.001347305,0.015602268
1786181234.545505524,-0.019066205,-0.000834483,0.998279095,-0.001294237,0.0045431,0.018798061
1786181234.549678326,-0.019066205,-0.000834483,0.998279095,-0.001294237,0.0045431,0.018798061
1786181234.555480480,0.002174029,-0.004008311,0.989245892,-0.003424766,0.0045431,0.014537003
1786181234.559802771,-0.000267378,-0.005229014,0.989490032,-0.00662056,0.002412571,0.013471738
1786181234.565491438,-0.010033002,-0.004496593,0.998034954,0.000836292,0.001347305,0.012406472
1786181234.569688320,-0.010033002,-0.004496593,0.998034954,0.000836292,0.001347305,0.012406472
1786181234.575482130,-0.023460736,-0.003275889,0.992908001,-0.001294237,0.002412571,0.015602268
1786181234.579684496,-0.023460736,-0.003275889,0.992908001,-0.001294237,0.002412571,0.015602268
1786181234.585485697,0.003883013,-0.001566905,0.992175579,0.004032086,0.002412571,0.019863326
1786181234.589738846,0.003883013,-0.001566905,0.992175579,0.004032086,0.002412571,0.019863326
1786181234.595510960,-0.001976362,-0.007914562,0.991443157,-0.00662056,0.000282042,0.010275945
1786181234.599705219,-0.001976362,-0.007914562,0.991443157,-0.00662056,0.000282042,0.010275945
1786181234.605484724,-0.031517379,0.000142079,1.001208782,-0.001294237,0.002412571,0.015602268
1786181234.609610558,-0.031517379,0.000142079,1.001208782,-0.001294237,0.002412571,0.015602268
1786181234.615504742,-0.012474408,0.00038622,0.994861126,0.000836292,0.005608363,0.018798061
1786181234.619833469,-0.012474408,0.00038622,0.994861126,0.000836292,0.005608363,0.018798061
1786181234.625483036,0.01438106,-0.004984874,0.987781048,-0.00662056,0.0045431,0.01134121
1786181234.629683733,0.01438106,-0.004984874,0.987781048,-0.00662056,0.0045431,0.01134121
1786181234.635521889,-0.016380658,-0.004984874,1.00047636,0.001901557,0.000282042,0.013471738
1786181234.639699459,-0.016380658,-0.004984874,1.00047636,0.001901557,0.000282042,0.013471738
1786181234.645501852,-0.029808393,-0.003275889,0.993396282,0.002966821,0.002412571,0.017732795
1786181234.649736404,-0.029808393,-0.003275889,0.993396282,0.002966821,0.002412571,0.017732795
1786181234.655502081,0.007300982,-0.001078624,0.991687298,-0.005555294,0.0045431,0.01666753
1786181234.659810781,0.007300982,-0.001078624,0.991687298,-0.005555294,0.0045431,0.01666753
1786181234.665491819,-0.003685346,-0.006205577,0.990954876,-0.002359501,-0.000783224,0.010275945
1786181234.669626951,-0.003685346,-0.006205577,0.990954876,-0.002359501,-0.000783224,0.010275945
1786181234.675490141,-0.030052533,-0.000346202,1.000720501,0.004032086,0.002412571,0.01666753
1786181234.679578304,-0.030052533,-0.000346202,1.000720501,0.004032086,0.002412571,0.01666753
1786181234.685505152,-0.002220503,-0.002299327,0.993152142,0.007227879,0.001347305,0.023059119
1786181234.689822435,-0.002220503,-0.002299327,0.993152142,0.007227879,0.001347305,0.023059119
1786181234.695350885,0.009986529,-0.005229014,0.990222454,0.000836292,0.000282042,0.015602268
1786181234.699689388,0.009986529,-0.005229014,0.990222454,0.000836292,0.000282042,0.015602268
1786181234.705485106,-0.029075971,-0.003764171,1.000964642,0.000836292,0.000282042,0.017732795
1786181234.710044146,-0.029075971,-0.003764171,1.000964642,0.000836292,0.000282042,0.017732795
1786181234.715234041,-0.026390424,-0.004740733,0.992908001,-0.009816352,0.006673628,0.020928588
1786181234.719650269,-0.026390424,-0.004740733,0.992908001,-0.009816352,0.006673628,0.020928588
1786181234.725490808,0.01413692,-0.001078624,0.99241972,-0.007685823,0.005608363,0.013471738
1786181234.730012178,0.01413692,-0.001078624,0.99241972,-0.007685823,0.005608363,0.013471738
1786181234.735207081,-0.007591596,-0.005229014,0.991199017,-0.002359501,-0.000783224,0.012406472
1786181234.739728451,-0.007591596,-0.005229014,0.991199017,-0.002359501,-0.000783224,0.012406472
1786181234.745492220,-0.026390424,-0.001566905,0.999255657,0.004032086,0.003477834,0.019863326
1786181234.749693394,-0.026390424,-0.001566905,0.999255657,0.004032086,0.003477834,0.019863326
1786181234.755512714,-0.001488081,-0.004008311,0.993640423,0.004032086,0.002412571,0.021993853
1786181234.759639978,-0.001488081,-0.004008311,0.993640423,0.004032086,0.002412571,0.021993853
1786181234.765490532,-0.001488081,-0.004008311,0.993640423,-0.002359501,0.002412571,0.014537003
1786181234.769920826,-0.001488081,-0.004008311,0.993640423,-0.002359501,0.002412571,0.014537003
1786181234.775320292,-0.026878705,-0.002787608,1.000720501,0.000836292,0.002412571,0.01666753
1786181234.779604197,-0.026878705,-0.002787608,1.000720501,0.000836292,0.002412571,0.01666753
1786181234.785507441,-0.010521283,-0.004984874,0.989001751,-0.00662056,0.005608363,0.018798061
1786181234.789865017,-0.010521283,-0.004984874,0.989001751,-0.00662056,0.005608363,0.018798061
1786181234.795494556,0.01047481,-0.002055186,0.991199017,0.001901557,0.000282042,0.017732795
1786181234.799811125,0.01047481,-0.002055186,0.991199017,0.001901557,0.000282042,0.017732795
1786181234.805496931,-0.016136518,-0.004984874,0.989978313,0.006162615,-0.001848487,0.018798061
1786181234.809710264,-0.016136518,-0.004984874,0.989978313,0.006162615,-0.001848487,0.018798061
1786181234.815501213,-0.024437299,-0.000834483,0.998523235,0.001901557,0.003477834,0.015602268
1786181234.819665909,-0.024437299,-0.000834483,0.998523235,0.001901557,0.003477834,0.015602268
1786181234.825501442,-0.006615034,-0.003031749,0.994616985,-0.000228972,0.003477834,0.01666753
1786181234.829614162,-0.006615034,-0.003031749,0.994616985,-0.000228972,0.003477834,0.01666753
1786181234.835543871,-0.00124394,-0.001811046,0.993152142,0.004032086,0.001347305,0.015602268
1786181234.839695215,-0.00124394,-0.001811046,0.993152142,0.004032086,0.001347305,0.015602268
1786181234.845492840,-0.01296269,-0.004008311,0.99657011,-0.00449003,0.001347305,0.014537003
1786181234.849779606,-0.01296269,-0.004008311,0.99657011,-0.00449003,0.001347305,0.014537003
1786181234.855653048,-0.014427533,-0.003764171,0.997058392,-0.000228972,0.001347305,0.014537003
1786181234.859677315,-0.013939252,-0.005961436,0.99266386,-0.000228972,0.003477834,0.014537003
1786181234.865502357,-0.011986127,-0.005473155,0.99657011,-0.00449003,0.003477834,0.017732795
1786181234.869804382,-0.006126753,0.000142079,0.99657011,0.000836292,0.002412571,0.018798061
1786181234.875494242,-0.01296269,-0.004252452,0.989978313,-0.005555294,0.002412571,0.017732795
1786181234.879946709,-0.01296269,-0.004252452,0.989978313,-0.005555294,0.002412571,0.017732795
1786181234.885501146,-0.013939252,-0.002787608,0.995593548,0.000836292,0.001347305,0.01666753
1786181234.889734745,-0.013939252,-0.002055186,0.996814251,0.000836292,0.001347305,0.01666753
1786181234.895498037,-0.011009565,-0.004984874,0.990222454,0.001901557,0.002412571,0.017732795
1786181234.899791956,-0.010033002,-0.003275889,0.995105267,0.004032086,0.003477834,0.017732795
1786181234.905483246,-0.002220503,-0.001078624,0.995837688,-0.005555294,0.005608363,0.017732795
1786181234.909853458,-0.002464643,-0.001811046,0.991931438,0.00509735,0.003477834,0.018798061
1786181234.915493488,-0.007103315,-0.007182139,0.989001751,0.004032086,0.001347305,0.017732795
1786181234.919864893,-0.010521283,-0.007182139,0.994616985,-0.005555294,0.002412571,0.013471738
1786181234.925611496,-0.015404096,-0.003031749,0.999499798,-0.000228972,0.001347305,0.012406472
1786181234.929565668,-0.019798627,-0.004984874,0.993884563,-0.005555294,0.003477834,0.01134121
1786181234.935508490,-0.019554486,-0.001811046,0.997546673,0.006162615,0.000282042,0.019863326
1786181234.939937592,-0.007835736,0.002095204,0.996081829,0.004032086,0.003477834,0.021993853
1786181234.945342779,0.000220904,-0.001566905,0.992175579,0.006162615,0.003477834,0.019863326
1786181234.949739695,0.000465044,-0.004252452,0.987292767,0.000836292,0.003477834,0.015602268
1786181234.955517292,-0.004661909,-0.006693858,0.99266386,0.004032086,0.000282042,0.015602268
1786181234.959589005,-0.011497846,-0.002787608,0.999499798,0.007227879,0.000282042,0.017732795
1786181234.965500355,-0.019798627,-0.005961436,0.992908001,-0.000228972,0.002412571,0.014537003
1786181234.969757795,-0.020042768,-0.001078624,0.99657011,0.002966821,0.001347305,0.023059119
1786181234.975484610,-0.00905644,-0.000102061,0.995105267,-0.001294237,0.0045431,0.017732795
1786181234.980202913,-0.000023237,-0.001566905,0.993152142,-0.00449003,0.0045431,0.01666753
1786181234.985491753,-0.000267378,-0.006693858,0.986804485,-0.00449003,0.002412571,0.014537003
1786181234.989806652,-0.007591596,-0.005473155,0.995837688,0.00509735,-0.000783224,0.019863326
1786181234.995491028,-0.018333783,-0.001322764,1.001208782,-0.002359501,0.0045431,0.013471738
1786181234.999804258,-0.025902143,-0.003031749,0.996814251,0.004032086,0.001347305,0.019863326
1786181235.005489349,-0.020042768,-0.001078624,0.994861126,-0.00662056,0.0045431,0.013471738
1786181235.009912014,-0.002708784,-0.000346202,0.994616985,-0.005555294,0.005608363,0.019863326
1786181235.015292883,0.010963092,-0.002787608,0.988269329,-0.009816352,0.007738894,0.013471738
1786181235.019680023,0.006812701,-0.009623546,0.984363079,0.001901557,0.000282042,0.01666753
1786181235.025507689,-0.007347456,-0.008158702,0.997546673,-0.010881618,0.001347305,0.00921068
1786181235.029911757,-0.02492558,-0.003031749,1.001208782,0.000836292,0.001347305,0.01134121
1786181235.035177946,-0.034691207,-0.00352003,0.999011517,0.004032086,0.003477834,0.013471738
1786181235.039838791,-0.026634565,-0.000346202,0.995593548,-0.005555294,0.003477834,0.019863326
1786181235.045504093,-0.00515019,0.003071767,0.994128704,0.004032086,0.003477834,0.021993853
1786181235.049722433,0.011451373,-0.001322764,0.988269329,-0.002359501,0.005608363,0.01666753
1786181235.055482864,0.009254107,-0.00742628,0.984363079,0.00509735,0.000282042,0.015602268
1786181235.059749126,-0.004906049,-0.00352003,0.996081829,-0.00662056,-0.001848487,0.010275945
1786181235.065708637,-0.020531049,-0.00352003,1.00047636,-0.000228972,0.000282042,0.015602268
1786181235.069645166,-0.02858769,-0.00352003,0.99657011,0.004032086,0.002412571,0.018798061
1786181235.075501680,-0.021995893,-0.004740733,0.994616985,-0.002359501,0.005608363,0.019863326
1786181235.079897404,-0.00124394,-0.000346202,0.994128704,-0.005555294,0.005608363,0.017732795
1786181235.085498333,0.009498248,-0.004496593,0.990710735,-0.00662056,0.003477834,0.013471738
1786181235.090222597,0.002418169,-0.006449718,0.987292767,-0.001294237,0.001347305,0.013471738
1786181235.095535994,-0.015892377,-0.00352003,0.998523235,0.004032086,-0.001848487,0.012406472
1786181235.099646330,-0.029808393,0.000142079,1.002917767,0.002966821,0.002412571,0.013471738
1786181235.105491161,-0.029808393,-0.000834483,0.994128704,-0.001294237,0.0045431,0.014537003
1786181235.109982014,-0.013939252,-0.004496593,0.994616985,-0.000228972,0.0045431,0.018798061
1786181235.115493774,0.008765826,0.000874501,0.989978313,0.001901557,0.003477834,0.021993853
1786181235.119700670,0.016578326,-0.004496593,0.989001751,0.00509735,0.002412571,0.01666753
1786181235.125495434,0.004127154,-0.006937999,0.987536907,0.002966821,-0.000783224,0.010275945
1786181235.129764795,-0.017601361,-0.007670421,0.998523235,0.002966821,-0.001848487,0.015602268
1786181235.135495424,-0.032249801,-0.001811046,1.002917767,0.002966821,0.002412571,0.017732795
1786181235.139511347,-0.032249801,-0.003275889,0.99632597,-0.00662056,0.005608363,0.013471738
1786181235.145485640,-0.015404096,-0.002543468,0.992175579,-0.001294237,0.0045431,0.021993853
1786181235.149757147,0.005591997,-0.001811046,0.991687298,-0.001294237,0.0045431,0.01666753
1786181235.155560970,0.010963092,-0.000346202,0.992175579,0.009358408,0.001347305,0.018798061
1786181235.159709215,-0.001488081,-0.005717296,0.988269329,-0.001294237,0.001347305,0.012406472
1786181235.165502310,-0.019066205,-0.003275889,0.997058392,-0.001294237,0.000282042,0.018798061
1786181235.169746876,-0.027122846,-0.002299327,1.001452923,-0.002359501,0.0045431,0.014537003
1786181235.175358534,-0.020531049,-0.00352003,0.994128704,-0.00662056,0.006673628,0.012406472
1786181235.179544926,-0.007103315,-0.004984874,0.991199017,0.002966821,0.003477834,0.021993853
1786181235.185495138,0.006812701,-0.002543468,0.992175579,-0.009816352,0.005608363,0.013471738
1786181235.190636158,0.005347857,-0.004496593,0.993640423,0.002966821,0.002412571,0.018798061
1786181235.195322275,-0.009544721,-0.004984874,0.99241972,-0.000228972,0.002412571,0.00921068
1786181235.199830770,-0.023460736,-0.005473155,0.997302532,0.001901557,0.001347305,0.014537003
1786181235.205493450,-0.027855268,-0.000590343,1.002917767,-0.007685823,0.0045431,0.012406472
1786181235.209916830,-0.020042768,-0.002299327,0.993396282,-0.009816352,0.006673628,0.015602268
1786181235.215359926,-0.006615034,-0.005473155,0.991687298,0.004032086,0.002412571,0.020928588
1786181235.219690800,0.006080279,-0.000102061,0.993884563,-0.001294237,0.001347305,0.017732795
1786181235.225611210,0.005591997,-0.001566905,0.991199017,-0.002359501,0.0045431,0.012406472
1786181235.229584694,-0.006126753,-0.003764171,0.991199017,-0.007685823,0.0045431,0.01134121
1786181235.235499620,-0.016136518,-0.006449718,0.993152142,-0.005555294,0.001347305,0.013471738
1786181235.239940166,-0.020531049,-0.002543468,0.999499798,-0.001294237,0.003477834,0.018798061
1786181235.245271921,-0.017357221,-0.004496593,0.995105267,-0.000228972,0.003477834,0.013471738
1786181235.249768972,-0.012718549,-0.005473155,0.993152142,-0.003424766,0.003477834,0.017732795
1786181235.255504608,-0.006615034,-0.000590343,0.99657011,0.001901557,0.002412571,0.015602268
1786181235.259631395,-0.004173628,-0.001811046,0.993640423,0.002966821,0.001347305,0.014537003
1786181235.265481710,-0.010277143,-0.002055186,0.994128704,0.004032086,0.001347305,0.017732795
1786181235.269718409,-0.011253705,-0.004008311,0.989734173,0.004032086,0.000282042,0.020928588
1786181235.275494814,-0.011009565,-0.002299327,0.998523235,-0.002359501,0.002412571,0.014537003
1786181235.279597282,-0.00930058,-0.003275889,0.990710735,0.002966821,0.002412571,0.014537003
1786181235.285494804,-0.008324018,-0.005961436,0.991687298,-0.003424766,0.003477834,0.012406472
1786181235.289731979,-0.004906049,-0.002543468,0.997058392,-0.000228972,0.001347305,0.014537003
1786181235.295504808,-0.005638471,-0.001811046,0.994128704,-0.00449003,0.0045431,0.015602268
1786181235.299936295,-0.011253705,-0.003764171,0.993152142,-0.000228972,0.002412571,0.01666753
1786181235.305485249,-0.014915815,-0.007670421,0.992175579,-0.002359501,0.000282042,0.013471738
1786181235.309820652,-0.015648236,-0.001811046,0.999011517,0.002966821,0.001347305,0.01666753
1786181235.315484047,-0.015892377,-0.00352003,0.994372845,0.009358408,0.001347305,0.01666753
1786181235.319746971,-0.014915815,-0.001322764,0.994616985,0.001901557,0.002412571,0.01666753
1786181235.325497866,-0.006126753,-0.000102061,0.993640423,0.006162615,0.001347305,0.023059119
1786181235.329667330,0.000220904,0.001118642,0.994616985,0.007227879,0.002412571,0.019863326
1786181235.335564137,0.000953326,-0.003764171,0.989245892,0.002966821,0.001347305,0.017732795
1786181235.339557409,-0.004661909,-0.007914562,0.989734173,-0.00449003,0.000282042,0.012406472
1786181235.345491409,-0.01320683,-0.005717296,0.999255657,0.002966821,-0.000783224,0.01666753
1786181235.349759102,-0.02077519,-0.004008311,0.99657011,-0.00662056,0.0045431,0.010275945
1786181235.355518579,-0.023949018,-0.004496593,0.99632597,0.00509735,0.002412571,0.023059119
1786181235.359697104,-0.015404096,0.001118642,0.99657011,-0.003424766,0.0045431,0.018798061
1786181235.365499258,-0.004173628,0.002827626,0.994128704,-0.002359501,0.005608363,0.019863326
1786181235.369793415,0.001441607,-0.004008311,0.98875761,-0.011946881,0.005608363,0.01134121
1786181235.375359535,-0.000267378,-0.005473155,0.990222454,0.001901557,0.000282042,0.015602268
1786181235.379790068,-0.008812299,-0.004252452,0.995837688,-0.000228972,0.001347305,0.01134121
1786181235.385493040,-0.018333783,-0.003031749,0.997058392,-0.000228972,0.003477834,0.015602268
1786181235.389501810,-0.024437299,-0.004252452,0.993884563,0.008293143,0.002412571,0.021993853
1786181235.395492554,-0.013939252,-0.001811046,0.997058392,-0.002359501,0.0045431,0.018798061
1786181235.399631023,0.000709185,0.000142079,0.991687298,-0.001294237,0.0045431,0.017732795
1786181235.405494452,0.004371294,-0.007670421,0.98875761,-0.010881618,0.0045431,0.010275945
1786181235.410013676,-0.001732221,-0.007182139,0.989734173,-0.005555294,0.001347305,0.013471738
1786181235.415633202,-0.016624799,-0.005473155,0.999988079,-0.000228972,0.000282042,0.014537003
1786181235.419648409,-0.027366986,-0.000102061,0.998523235,-0.002359501,0.003477834,0.013471738
1786181235.425494194,-0.02858769,-0.002787608,0.993152142,-0.002359501,0.0045431,0.019863326
1786181235.429766178,-0.011741986,0.00038622,0.995593548,-0.005555294,0.006673628,0.021993853
1786181235.435524464,0.008277545,-0.000346202,0.989245892,0.006162615,0.0045431,0.018798061
1786181235.439581871,0.011939654,-0.005473155,0.986560345,-0.003424766,0.0045431,0.014537003
1786181235.445493698,0.003150591,-0.008891124,0.98875761,0.000836292,-0.000783224,0.014537003
1786181235.449758530,-0.015648236,-0.004008311,1.000964642,0.00509735,-0.000783224,0.013471738
1786181235.455503225,-0.029808393,-0.002299327,0.999499798,0.000836292,0.003477834,0.012406472
1786181235.459721088,-0.031273238,-0.003031749,0.995349407,0.000836292,0.003477834,0.017732795
1786181235.465524673,-0.013450971,-0.001566905,0.997546673,0.002966821,0.003477834,0.021993853
1786181235.469698906,0.005347857,-0.000590343,0.991687298,0.002966821,0.0045431,0.01666753
1786181235.475482464,0.009254107,-0.004740733,0.989001751,0.000836292,0.001347305,0.017732795
1786181235.479693174,-0.003441206,-0.005473155,0.991687298,-0.000228972,-0.000783224,0.01666753
1786181235.485504627,-0.019554486,-0.002055186,1.000964642,-0.007685823,0.0045431,0.013471738
1786181235.489506960,-0.028343549,-0.000834483,1.00047636,0.008293143,0.002412571,0.019863326
1786181235.495495319,-0.022240033,-0.004496593,0.991199017,-0.00662056,0.006673628,0.015602268
1786181235.499654770,-0.002464643,-0.003031749,0.993396282,0.010423672,0.002412571,0.025189646
1786181235.505483389,0.013648639,-0.002299327,0.990222454,0.002966821,0.0045431,0.018798061
1786181235.509781837,0.008765826,-0.006693858,0.988269329,0.00509735,-0.000783224,0.013471738
1786181235.515482187,-0.010521283,-0.007182139,0.993396282,0.007227879,-0.001848487,0.013471738
1786181235.519884109,-0.029808393,-0.003764171,1.002917767,-0.002359501,-0.000783224,0.017732795
1786181235.525557995,-0.034935348,-0.000102061,1.001452923,0.004032086,0.002412571,0.014537003
1786181235.529647112,-0.023949018,-0.003764171,0.991687298,0.000836292,0.0045431,0.018798061
1786181235.535491467,-0.000511518,-0.000346202,0.993884563,0.002966821,0.002412571,0.023059119
1786181235.539777756,0.016578326,-0.000834483,0.990710735,-0.003424766,0.0045431,0.015602268
1786181235.545303583,0.010963092,-0.004984874,0.989490032,-0.003424766,0.002412571,0.014537003
1786181235.549731731,-0.008568158,-0.006449718,0.990710735,-0.00449003,0.000282042,0.014537003
1786181235.555585861,-0.025413861,-0.003275889,1.001452923,-0.003424766,0.001347305,0.014537003
1786181235.559690237,-0.028343549,-0.000834483,0.998767376,-0.000228972,0.0045431,0.017732795
1786181235.565498114,-0.019798627,-0.006693858,0.991199017,-0.002359501,0.005608363,0.019863326
1786181235.569733858,-0.004173628,-0.002787608,0.995105267,-0.000228972,0.003477834,0.019863326
1786181235.575484753,0.007300982,-0.002543468,0.99266386,0.004032086,0.001347305,0.017732795
1786181235.579636574,0.000465044,-0.003031749,0.993152142,0.002966821,0.001347305,0.01666753
1786181235.585520744,-0.013939252,-0.004252452,0.99266386,0.000836292,-0.001848487,0.015602268
1786181235.589857101,-0.023704877,-0.000834483,0.999011517,0.000836292,0.002412571,0.01666753
1786181235.595495224,-0.021995893,-0.002787608,0.996814251,0.002966821,0.0045431,0.020928588
1786181235.599782228,-0.010033002,-0.004252452,0.988269329,0.007227879,0.002412571,0.019863326
1786181235.605510950,0.002174029,-0.005473155,0.991199017,-0.001294237,0.0045431,0.019863326
1786181235.609704018,0.008765826,-0.001322764,0.992908001,0.004032086,0.002412571,0.013471738
1786181235.615491390,-0.003197065,-0.005717296,0.991199017,0.002966821,0.000282042,0.012406472
1786181235.619697332,-0.017357221,-0.005473155,0.993152142,-0.001294237,0.000282042,0.013471738
1786181235.625508308,-0.025413861,-0.00352003,1.000964642,0.00509735,-0.001848487,0.018798061
1786181235.629764795,-0.021507611,-0.002299327,0.997546673,-0.00449003,0.006673628,0.01134121
1786181235.635491848,-0.014427533,-0.003764171,0.990466595,0.000836292,0.003477834,0.01666753
1786181235.639762640,-0.002952924,-0.002055186,0.994128704,0.000836292,0.002412571,0.01666753
1786181235.645498514,0.002418169,0.000630361,0.994372845,0.00509735,0.000282042,0.01666753
1786181235.649701595,-0.002708784,-0.001811046,0.994128704,0.002966821,0.001347305,0.017732795
1786181235.655508995,-0.010765424,-0.005961436,0.989734173,0.007227879,-0.000783224,0.018798061
1786181235.659590960,-0.014427533,-0.004740733,0.997790813,-0.001294237,0.001347305,0.017732795
1786181235.665490866,-0.014183393,-0.004008311,0.99632597,-0.000228972,0.003477834,0.015602268
1786181235.669843435,-0.013939252,-0.00742628,0.991443157,-0.003424766,0.0045431,0.010275945
1786181235.675304174,-0.00930058,-0.003275889,0.995593548,0.001901557,0.000282042,0.017732795
1786181235.679820299,-0.005882612,0.000142079,0.99632597,-0.002359501,0.0045431,0.014537003
1786181235.685499430,-0.008079877,-0.002299327,0.993640423,0.001901557,0.003477834,0.019863326
1786181235.689617872,-0.01296269,-0.003764171,0.989734173,0.000836292,0.001347305,0.015602268
1786181235.695484877,-0.014671674,-0.002787608,0.99657011,-0.002359501,0.001347305,0.018798061
1786181235.699856520,-0.011986127,-0.00352003,0.997058392,0.001901557,0.002412571,0.01666753
1786181235.705489635,-0.010521283,-0.003764171,0.989978313,0.002966821,0.002412571,0.019863326
1786181235.709590912,-0.008324018,-0.004008311,0.99657011,0.008293143,-0.000783224,0.018798061
1786181235.715499163,-0.00124394,0.001362782,0.993640423,0.006162615,0.001347305,0.015602268
1786181235.719820738,-0.002464643,-0.003764171,0.99241972,0.006162615,0.000282042,0.014537003
1786181235.725497484,-0.007103315,-0.007914562,0.987292767,0.006162615,-0.000783224,0.020928588
1786181235.730064631,-0.012474408,-0.004984874,0.998279095,-0.001294237,0.000282042,0.01666753
1786181235.735358953,-0.018822065,-0.004252452,0.999499798,0.000836292,0.001347305,0.01666753
1786181235.739609241,-0.021995893,-0.002543468,0.993396282,0.000836292,0.003477834,0.018798061
1786181235.745491266,-0.018089643,-0.003275889,0.998279095,-0.00449003,0.002412571,0.012406472
1786181235.749672174,-0.006126753,0.003804189,0.994128704,0.001901557,0.002412571,0.021993853
1786181235.755608320,0.001685747,-0.001322764,0.991199017,-0.00662056,0.005608363,0.010275945
1786181235.759691238,0.002418169,-0.006449718,0.985339642,-0.000228972,0.001347305,0.01666753
1786181235.765570879,-0.003441206,-0.005961436,0.993884563,0.001901557,-0.000783224,0.014537003
1786181235.769779921,-0.014427533,-0.004496593,0.999255657,0.010423672,-0.000783224,0.015602268
1786181235.775515318,-0.021995893,-0.004740733,0.994128704,0.008293143,0.000282042,0.01666753
1786181235.779563189,-0.02101933,-0.002055186,0.998523235,0.002966821,0.001347305,0.018798061
1786181235.785493135,-0.009544721,0.000142079,0.995593548,0.009358408,0.000282042,0.021993853
1786181235.789736509,-0.000999799,-0.001566905,0.990954876,-0.003424766,0.0045431,0.014537003
1786181235.795568466,-0.000999799,-0.007670421,0.986804485,-0.003424766,0.002412571,0.017732795
1786181235.799500465,-0.006859174,-0.004008311,0.995593548,0.002966821,0.000282042,0.013471738
1786181235.805502653,-0.016136518,-0.001811046,0.999988079,-0.003424766,0.003477834,0.010275945
1786181235.809948683,-0.023460736,-0.002299327,0.994128704,-0.001294237,0.003477834,0.01666753
1786181235.815506458,-0.018333783,-0.001566905,0.995593548,-0.002359501,0.003477834,0.019863326
1786181235.819627047,-0.000999799,0.000142079,0.99266386,0.00509735,0.005608363,0.021993853
1786181235.825497150,0.009986529,-0.003764171,0.989245892,0.007227879,0.001347305,0.019863326
1786181235.829979420,0.004859576,-0.008402843,0.985339642,0.001901557,0.000282042,0.018798061
1786181235.835492134,-0.010277143,-0.00742628,0.997546673,0.004032086,-0.000783224,0.014537003
1786181235.839695930,-0.026146283,-0.002543468,1.002917767,0.006162615,0.000282042,0.018798061
1786181235.845521927,-0.032493941,-0.003031749,0.996081829,0.006162615,0.002412571,0.01666753
1786181235.849756479,-0.023216596,-0.000346202,0.997546673,0.004032086,0.0045431,0.021993853
1786181235.855523109,-0.001976362,0.000630361,0.991443157,-0.001294237,0.0045431,0.021993853
1786181235.859755754,0.011695514,-0.001566905,0.990222454,-0.001294237,0.0045431,0.015602268
1786181235.865354776,0.008277545,-0.006937999,0.986072063,0.004032086,0.000282042,0.013471738
1786181235.869672537,-0.008079877,-0.005473155,0.995349407,0.001901557,-0.000783224,0.015602268
1786181235.875493765,-0.023460736,-0.003031749,1.001697063,0.000836292,0.001347305,0.013471738
1786181235.879720926,-0.029075971,-0.004008311,0.994616985,-0.002359501,0.0045431,0.013471738
1786181235.885355949,-0.019554486,-0.004984874,0.995349407,-0.002359501,0.005608363,0.023059119
1786181235.889585257,0.000709185,-0.000834483,0.991687298,-0.003424766,0.006673628,0.015602268
1786181235.895502329,0.009742389,-0.004740733,0.991199017,-0.001294237,0.003477834,0.017732795
1786181235.899558783,0.000953326,-0.005717296,0.989245892,-0.002359501,0.001347305,0.010275945
1786181235.905498743,-0.01711308,-0.003031749,0.997058392,0.00509735,-0.001848487,0.014537003
1786181235.909729719,-0.030052533,-0.000346202,1.001452923,0.007227879,0.001347305,0.015602268
1786181235.915502787,-0.030296674,-0.001078624,0.994616985,0.006162615,0.003477834,0.021993853
1786181235.919699192,-0.012474408,-0.00352003,0.99241972,0.007227879,0.003477834,0.027320176
1786181235.925514221,0.010718951,-0.000102061,0.990222454,0.011488937,0.002412571,0.024124384
1786181235.929612637,0.016822467,-0.005229014,0.98851347,0.006162615,0.001347305,0.015602268
1786181235.935497046,0.00266231,-0.007914562,0.989245892,0.004032086,-0.001848487,0.013471738
1786181235.940035343,-0.019554486,-0.006449718,0.999011517,0.001901557,-0.000783224,0.013471738
1786181235.945507526,-0.033226363,-0.001566905,1.003406048,-0.000228972,0.002412571,0.01666753
1786181235.949674606,-0.032493941,-0.001322764,0.993884563,-0.000228972,0.0045431,0.020928588
1786181235.955496073,-0.014915815,-0.003031749,0.99266386,0.001901557,0.003477834,0.020928588
1786181235.959841013,0.007789263,-0.000834483,0.991687298,-0.002359501,0.0045431,0.018798061
1786181235.965711117,0.011695514,-0.002299327,0.990710735,-0.007685823,0.003477834,0.010275945
1786181235.969660044,-0.000999799,-0.005229014,0.990222454,-0.002359501,0.002412571,0.015602268
1786181235.975492954,-0.018333783,-0.004008311,0.997302532,-0.000228972,-0.000783224,0.017732795
1786181235.979862690,-0.026878705,-0.002543468,1.001452923,0.000836292,0.002412571,0.017732795
1786181235.985330343,-0.021263471,-0.003031749,0.994616985,-0.00449003,0.006673628,0.013471738
1786181235.989645004,-0.007103315,-0.004984874,0.991687298,-0.008751089,0.0045431,0.015602268
1786181235.995494127,0.006812701,-0.004496593,0.99266386,0.00509735,0.001347305,0.019863326
1786181235.999561310,0.005347857,-0.003031749,0.993884563,0.000836292,0.001347305,0.015602268
1786181236.005500555,-0.010521283,-0.005961436,0.991687298,-0.000228972,0.000282042,0.015602268
1786181236.009778738,-0.02492558,-0.002055186,0.99657011,-0.002359501,0.000282042,0.015602268
1786181236.015499353,-0.027366986,-0.002055186,1.001941204,-0.009816352,0.005608363,0.015602268
1786181236.019588709,-0.01711308,-0.002299327,0.991199017,0.002966821,0.005608363,0.024124384
1786181236.025481701,-0.002952924,-0.004008311,0.989490032,0.001901557,0.0045431,0.017732795
1786181236.029648781,0.009498248,-0.001322764,0.991687298,0.004032086,0.001347305,0.021993853
1786181236.035371542,0.005347857,-0.001811046,0.992908001,0.000836292,0.001347305,0.012406472
1786181236.039662123,-0.008568158,-0.006449718,0.991687298,-0.001294237,0.000282042,0.015602268
1786181236.045501947,-0.02101933,-0.004740733,0.99657011,0.004032086,-0.001848487,0.01666753
1786181236.049878597,-0.024193158,-0.003031749,0.999499798,-0.003424766,0.003477834,0.018798061
1786181236.055275679,-0.018333783,-0.004008311,0.992908001,0.007227879,0.002412571,0.01666753
1786181236.059736729,-0.010765424,-0.005717296,0.99266386,-0.000228972,0.002412571,0.018798061
1786181236.065500259,-0.001732221,-0.000834483,0.994128704,0.008293143,-0.000783224,0.019863326
1786181236.069779873,-0.00124394,0.000142079,0.994616985,0.004032086,0.001347305,0.015602268
1786181236.075495958,-0.00930058,-0.003031749,0.991199017,0.001901557,0.001347305,0.017732795
1786181236.079647541,-0.014915815,-0.003764171,0.992175579,0.001901557,0.000282042,0.018798061
1786181236.085497141,-0.014183393,-0.003275889,0.998034954,-0.002359501,0.0045431,0.014537003
1786181236.089670897,-0.011497846,-0.004496593,0.991687298,0.004032086,0.001347305,0.015602268
1786181236.095495939,-0.007347456,-0.006693858,0.99266386,-0.002359501,0.002412571,0.019863326
1786181236.099877834,-0.002220503,-0.001566905,0.995593548,0.000836292,0.002412571,0.012406472
1786181236.105495691,-0.003441206,-0.002055186,0.994128704,-0.002359501,0.003477834,0.017732795
1786181236.109658957,-0.011497846,-0.004252452,0.991199017,-0.001294237,0.002412571,0.01666753
1786181236.115492582,-0.01711308,-0.004984874,0.995105267,0.001901557,-0.000783224,0.020928588
1786181236.119700670,-0.017601361,-0.001811046,0.999988079,0.000836292,0.002412571,0.015602268
1786181236.125497103,-0.014671674,-0.00352003,0.993640423,0.001901557,0.002412571,0.01666753
1786181236.129734278,-0.010521283,-0.003764171,0.992908001,0.006162615,0.001347305,0.018798061
1786181236.135483980,-0.004173628,0.001362782,0.995105267,0.001901557,0.0045431,0.017732795
1786181236.139497280,0.000709185,0.00038622,0.994128704,0.007227879,0.001347305,0.020928588
1786181236.145508528,-0.001976362,-0.005473155,0.98851347,0.007227879,0.001347305,0.01666753
1786181236.149613619,-0.006126753,-0.006937999,0.990710735,-0.005555294,0.000282042,0.014537003
1786181236.155524492,-0.01296269,-0.005961436,0.999499798,0.007227879,0.000282042,0.017732795
1786181236.159755468,-0.019310346,-0.004252452,0.995593548,0.002966821,0.002412571,0.014537003
1786181236.165496826,-0.022240033,-0.005229014,0.995593548,-0.001294237,0.001347305,0.01666753
1786181236.169763565,-0.014671674,0.001118642,0.998523235,0.002966821,0.001347305,0.018798061
1786181236.175509214,-0.004661909,0.000630361,0.994616985,-0.003424766,0.005608363,0.01666753
1786181236.179601669,-0.001732221,-0.003031749,0.987292767,-0.001294237,0.003477834,0.01666753
1786181236.185495377,-0.001732221,-0.004008311,0.990954876,-0.005555294,0.002412571,0.018798061
1786181236.189940929,-0.006615034,-0.004252452,0.997058392,0.000836292,0.000282042,0.017732795
1786181236.195534468,-0.015892377,-0.004252452,0.995105267,-0.003424766,0.003477834,0.01666753
1786181236.199532747,-0.020042768,-0.005717296,0.994616985,0.001901557,0.002412571,0.018798061
1786181236.205498457,-0.012474408,-0.000346202,0.996081829,0.007227879,0.001347305,0.017732795
1786181236.209941387,-0.002220503,-0.001322764,0.993884563,0.001901557,0.0045431,0.015602268
1786181236.215496778,-0.00124394,-0.005961436,0.987781048,-0.002359501,0.001347305,0.01666753
1786181236.219632626,-0.006370893,-0.005961436,0.99266386,0.008293143,-0.001848487,0.01666753
1786181236.225528479,-0.015892377,-0.004008311,0.998767376,0.007227879,-0.000783224,0.015602268
1786181236.229579926,-0.023460736,-0.002055186,0.998767376,0.001901557,0.002412571,0.015602268
1786181236.235491276,-0.023949018,-0.003031749,0.994128704,0.001901557,0.003477834,0.014537003
1786181236.239554644,-0.010033002,0.003560048,0.99657011,0.002966821,0.003477834,0.023059119
1786181236.245498180,0.006324419,-0.001811046,0.991199017,-0.000228972,0.005608363,0.01666753
1786181236.249745846,0.009254107,-0.005473155,0.987048626,0.000836292,0.002412571,0.017732795
1786181236.255483866,-0.000267378,-0.008891124,0.990710735,0.000836292,-0.002913753,0.012406472
1786181236.259927988,-0.014427533,-0.004252452,1.001941204,0.002966821,-0.001848487,0.017732795
1786181236.265211344,-0.02883183,-0.004008311,0.998523235,0.00509735,0.003477834,0.012406472
1786181236.269822359,-0.030296674,-0.003031749,0.995349407,-0.001294237,0.002412571,0.021993853
1786181236.275352716,-0.015648236,0.000630361,0.997546673,0.004032086,0.002412571,0.021993853
1786181236.279654264,0.003394732,-0.000590343,0.990710735,0.007227879,0.003477834,0.023059119
1786181236.285511971,0.008277545,-0.005961436,0.987292767,-0.000228972,0.003477834,0.015602268
1786181236.289773464,-0.000023237,-0.005717296,0.991687298,0.002966821,-0.000783224,0.015602268
1786181236.295495749,-0.015159955,-0.002543468,1.00023222,0.000836292,0.001347305,0.012406472
1786181236.299709558,-0.027122846,-0.000834483,0.998523235,0.002966821,0.002412571,0.017732795
1786181236.305481911,-0.02492558,-0.004740733,0.993640423,0.004032086,0.003477834,0.021993853
1786181236.309770346,-0.007591596,-0.001078624,0.994616985,-0.00449003,0.005608363,0.017732795
1786181236.315493584,0.01047481,-0.002543468,0.990710735,0.001901557,0.002412571,0.018798061
1786181236.319811344,0.008765826,-0.006205577,0.986804485,0.004032086,0.000282042,0.012406472
1786181236.325500011,-0.006615034,-0.007182139,0.99266386,0.008293143,-0.002913753,0.01666753
1786181236.329735279,-0.025658002,-0.001322764,1.003894329,-0.002359501,0.001347305,0.012406472
1786181236.335541725,-0.033226363,-0.001811046,0.999988079,-0.005555294,0.005608363,0.01134121
1786181236.339528322,-0.026878705,-0.001811046,0.99241972,-0.003424766,0.006673628,0.017732795
1786181236.345502615,-0.003685346,-0.000590343,0.993640423,-0.000228972,0.0045431,0.020928588
1786181236.349613667,0.015113482,0.000630361,0.989001751,0.000836292,0.005608363,0.019863326
1786181236.355509996,0.012183795,-0.004740733,0.986804485,0.004032086,0.001347305,0.01666753
1786181236.359944820,-0.004417768,-0.007182139,0.991687298,0.002966821,-0.001848487,0.013471738
1786181236.365386963,-0.02492558,-0.003031749,1.001452923,0.000836292,0.000282042,0.012406472
1786181236.369615316,-0.03176152,-0.001566905,0.997546673,-0.00449003,0.0045431,0.01666753
1786181236.375492096,-0.02468144,-0.004496593,0.994128704,-0.001294237,0.0045431,0.019863326
1786181236.379741192,-0.004173628,-0.002787608,0.993640423,-0.001294237,0.003477834,0.020928588
1786181236.385524511,0.009498248,-0.00352003,0.990954876,0.002966821,0.001347305,0.018798061
1786181236.389605284,0.003638872,-0.002055186,0.991443157,0.001901557,0.000282042,0.012406472
1786181236.395484686,-0.012718549,-0.005961436,0.992175579,0.004032086,-0.001848487,0.01666753
1786181236.399957895,-0.026390424,-0.001078624,1.002429485,0.002966821,0.001347305,0.013471738
1786181236.405489206,-0.026390424,-0.001811046,0.998034954,-0.010881618,0.007738894,0.015602268
1786181236.409863710,-0.01296269,-0.00352003,0.989734173,0.001901557,0.002412571,0.017732795
1786181236.415496349,0.004859576,-0.00352003,0.991687298,0.006162615,0.000282042,0.020928588
1786181236.419781685,0.01413692,-0.002787608,0.991443157,0.004032086,0.001347305,0.015602268
1786181236.425493717,0.000709185,-0.006693858,0.992175579,0.00509735,-0.001848487,0.012406472
1786181236.429576635,-0.019798627,-0.00742628,0.995593548,-0.001294237,0.000282042,0.013471738
1786181236.435512304,-0.032738082,-0.002787608,1.003406048,0.001901557,0.001347305,0.01666753
1786181236.439759493,-0.02883183,-0.000590343,0.999011517,-0.000228972,0.0045431,0.018798061
1786181236.445526600,-0.014427533,-0.003275889,0.990710735,0.004032086,0.001347305,0.018798061
1786181236.449817896,0.003394732,-0.000834483,0.993152142,0.000836292,0.003477834,0.025189646
1786181236.455525875,0.013160357,-0.001078624,0.989978313,0.00509735,0.003477834,0.014537003
1786181236.459556580,0.003394732,-0.00352003,0.991687298,-0.000228972,0.001347305,0.014537003
1786181236.465488911,-0.01296269,-0.006693858,0.991199017,-0.000228972,0.001347305,0.01134121
1786181236.469793797,-0.021751752,-0.004496593,1.00047636,-0.001294237,0.001347305,0.018798061
1786181236.475332499,-0.022240033,-0.002543468,0.997058392,-0.003424766,0.005608363,0.01666753
1786181236.479747057,-0.013939252,-0.006937999,0.991443157,-0.003424766,0.0045431,0.018798061
1786181236.485498905,-0.003441206,-0.001811046,0.996081829,0.00509735,0.001347305,0.019863326
1786181236.489733696,0.001197466,-0.001811046,0.994372845,-0.000228972,0.002412571,0.017732795
1786181236.495514393,-0.006615034,-0.000346202,0.99266386,0.002966821,0.000282042,0.018798061
1786181236.499805450,-0.014671674,-0.004496593,0.991931438,0.008293143,-0.001848487,0.01666753
1786181236.505491018,-0.018089643,-0.002787608,0.998034954,-0.003424766,0.002412571,0.015602268
1786181236.510277033,-0.015159955,-0.003031749,0.997058392,0.009358408,0.001347305,0.021993853
1786181236.515355349,-0.008079877,-0.004740733,0.989001751,0.00509735,0.002412571,0.018798061
1786181236.519600391,-0.00124394,-0.003764171,0.994616985,-0.001294237,0.002412571,0.017732795
1786181236.525521517,0.001441607,-0.000834483,0.993640423,-0.001294237,0.002412571,0.014537003
1786181236.529870033,-0.005638471,-0.004984874,0.993152142,-0.003424766,0.002412571,0.01134121
1786181236.535515070,-0.016380658,-0.005473155,0.991687298,-0.003424766,0.000282042,0.013471738
1786181236.539794207,-0.019310346,-0.004496593,0.997058392,-0.003424766,0.003477834,0.015602268
1786181236.545626640,-0.017357221,-0.001811046,0.997790813,0.000836292,0.003477834,0.015602268
1786181236.549551010,-0.01296269,-0.003764171,0.990222454,-0.001294237,0.003477834,0.019863326
1786181236.555484533,-0.007835736,-0.002299327,0.994616985,0.008293143,0.000282042,0.023059119
1786181236.559736490,-0.001732221,0.002095204,0.995349407,0.000836292,0.0045431,0.015602268
1786181236.565354109,-0.002708784,-0.002299327,0.991687298,-0.001294237,0.0045431,0.012406472
1786181236.569877148,-0.007347456,-0.005473155,0.990954876,-0.00449003,0.001347305,0.01666753
1786181236.575614214,-0.009788861,-0.004984874,0.995349407,0.002966821,0.000282042,0.017732795
1786181236.579698801,-0.012474408,-0.004252452,0.997546673,0.001901557,0.002412571,0.01666753
1786181236.585502863,-0.014427533,-0.005717296,0.991687298,0.006162615,0.001347305,0.020928588
1786181236.589709044,-0.013695111,-0.003275889,0.99657011,-0.001294237,0.002412571,0.014537003
1786181236.595494986,-0.007347456,-0.000346202,0.995837688,-0.005555294,0.003477834,0.015602268
1786181236.599686146,-0.007347456,-0.001566905,0.993152142,0.00509735,0.002412571,0.01666753
1786181236.605489731,-0.00930058,-0.005229014,0.989734173,0.001901557,0.000282042,0.021993853
1786181236.610276222,-0.011741986,-0.004496593,0.994616985,-0.002359501,0.001347305,0.014537003
1786181236.615528107,-0.01320683,-0.002299327,0.998767376,0.007227879,0.001347305,0.01666753
1786181236.619870186,-0.014427533,-0.004740733,0.991687298,0.001901557,0.001347305,0.015602268
1786181236.625499725,-0.009544721,-0.002787608,0.995349407,0.001901557,0.001347305,0.021993853
1786181236.629659414,-0.001488081,-0.000834483,0.995349407,0.002966821,0.003477834,0.017732795
1786181236.635515690,-0.000267378,-0.003031749,0.991687298,0.010423672,0.000282042,0.021993853
1786181236.639896154,-0.003685346,-0.008158702,0.988025188,-0.001294237,0.002412571,0.014537003
1786181236.645562410,-0.011986127,-0.005473155,0.995837688,0.000836292,0.000282042,0.015602268
1786181236.649597168,-0.019554486,-0.00352003,1.00023222,-0.003424766,0.0045431,0.01134121
1786181236.655490160,-0.025902143,-0.004984874,0.995105267,-0.000228972,0.002412571,0.015602268
1786181236.659848452,-0.018822065,-0.000102061,0.997058392,-0.00449003,0.0045431,0.021993853
1786181236.665269375,-0.003929487,0.002827626,0.995349407,-0.00449003,0.006673628,0.017732795
1786181236.669714451,0.004371294,-0.000346202,0.989490032,-0.00662056,0.006673628,0.018798061
1786181236.675496101,0.005103716,-0.006449718,0.986072063,-0.003424766,0.003477834,0.012406472
1786181236.679797888,-0.003441206,-0.005961436,0.995105267,-0.003424766,0.000282042,0.014537003
1786181236.685503721,-0.014671674,-0.004008311,0.999499798,0.001901557,0.001347305,0.01134121
1786181236.689752340,-0.02492558,-0.004740733,0.996081829,-0.002359501,0.003477834,0.013471738
1786181236.695550919,-0.022972455,-0.002787608,0.99657011,0.006162615,0.002412571,0.019863326
1786181236.699673891,-0.010277143,0.000630361,0.995837688,0.000836292,0.0045431,0.018798061
1786181236.705502987,0.000709185,-0.001811046,0.990222454,0.004032086,0.002412571,0.019863326
1786181236.709614754,0.000709185,-0.001811046,0.990222454,0.004032086,0.002412571,0.019863326
1786181236.715492964,-0.006859174,-0.003764171,0.995105267,-0.002359501,0.001347305,0.013471738
1786181236.720259666,-0.018333783,-0.003275889,1.001208782,0.002966821,0.001347305,0.013471738
1786181236.725581884,-0.02468144,-0.001078624,0.993884563,-0.00449003,0.003477834,0.015602268
1786181236.729656219,-0.02468144,-0.001078624,0.993884563,-0.00449003,0.003477834,0.015602268
1786181236.735546589,-0.000023237,-0.000102061,0.991199017,0.000836292,0.003477834,0.019863326
1786181236.739833117,0.009254107,-0.004740733,0.988269329,-0.000228972,0.0045431,0.017732795
1786181236.745495319,0.004371294,-0.007914562,0.988025188,-0.005555294,0.002412571,0.014537003
1786181236.749640465,0.004371294,-0.007914562,0.988025188,-0.005555294,0.002412571,0.014537003
1786181236.755529642,-0.026146283,-0.001322764,1.003894329,-0.002359501,0.002412571,0.010275945
1786181236.759530306,-0.026146283,-0.001322764,1.003894329,-0.002359501,0.002412571,0.010275945
1786181236.765501261,-0.023460736,-0.001811046,0.997058392,-0.007685823,0.006673628,0.017732795
1786181236.769655704,-0.023460736,-0.001811046,0.997058392,-0.007685823,0.006673628,0.017732795
1786181236.775498629,0.011207232,-0.001078624,0.989978313,0.000836292,0.003477834,0.015602268
1786181236.779858589,0.008521685,-0.007914562,0.986804485,0.00509735,-0.001848487,0.017732795
1786181236.785353661,-0.006126753,-0.005473155,0.995593548,0.000836292,-0.000783224,0.00921068
1786181236.789756298,-0.006126753,-0.005473155,0.995593548,0.000836292,-0.000783224,0.00921068
1786181236.795522213,-0.030052533,-0.004984874,0.994128704,0.001901557,0.003477834,0.017732795
1786181236.799630165,-0.030052533,-0.004984874,0.994128704,0.001901557,0.003477834,0.017732795
1786181236.805506229,0.000220904,-0.002299327,0.991199017,-0.000228972,0.0045431,0.024124384
1786181236.809741259,0.000220904,-0.002299327,0.991199017,-0.000228972,0.0045431,0.024124384
1786181236.815491199,0.001929888,-0.006693858,0.986804485,0.008293143,-0.001848487,0.018798061
1786181236.819957256,-0.014915815,-0.00352003,0.997790813,-0.000228972,0.000282042,0.01134121
1786181236.825483561,-0.029564252,-0.000346202,1.003161907,-0.002359501,0.002412571,0.01666753
1786181236.830024242,-0.029564252,-0.001566905,0.995105267,0.000836292,0.003477834,0.01666753
1786181236.835524321,-0.014183393,-0.001566905,0.99266386,0.002966821,0.0045431,0.020928588
1786181236.839547396,-0.014183393,-0.001566905,0.99266386,0.002966821,0.0045431,0.020928588
1786181236.845498085,0.017799029,-0.002787608,0.989001751,0.009358408,0.001347305,0.012406472
1786181236.849837542,0.017799029,-0.002787608,0.989001751,0.009358408,0.001347305,0.012406472
1786181236.855520248,-0.018089643,-0.005961436,0.999255657,0.00509735,-0.003979016,0.017732795
1786181236.859651089,-0.018089643,-0.005961436,0.999255657,0.00509735,-0.003979016,0.017732795
1786181236.865491390,-0.033714645,-0.001322764,0.996081829,0.004032086,0.003477834,0.019863326
1786181236.869874954,-0.033714645,-0.001322764,0.996081829,0.004032086,0.003477834,0.019863326
1786181236.875260353,0.006324419,0.000630361,0.99266386,-0.00449003,0.006673628,0.017732795
1786181236.879735947,0.006324419,0.000630361,0.99266386,-0.00449003,0.006673628,0.017732795
1786181236.885494709,0.001441607,-0.004740733,0.98851347,0.001901557,0.000282042,0.014537003
1786181236.889771223,0.001441607,-0.004740733,0.98851347,0.001901557,0.000282042,0.014537003
1786181236.895516872,-0.026634565,-0.001811046,1.001452923,0.006162615,0.002412571,0.018798061
1786181236.899760485,-0.026634565,-0.001811046,1.001452923,0.006162615,0.002412571,0.018798061
1786181236.905502796,-0.00930058,-0.004984874,0.992908001,-0.000228972,0.002412571,0.021993853
1786181236.909753323,-0.00930058,-0.004984874,0.992908001,-0.000228972,0.002412571,0.021993853
1786181236.915495634,0.007545122,-0.004496593,0.993396282,-0.000228972,0.001347305,0.013471738
1786181236.919743776,0.007545122,-0.004496593,0.993396282,-0.000228972,0.001347305,0.013471738
1786181236.925521851,-0.02492558,-0.002787608,1.00047636,-0.005555294,0.000282042,0.01666753
1786181236.929726362,-0.02492558,-0.002787608,1.00047636,-0.005555294,0.000282042,0.01666753
1786181236.935584068,-0.019798627,-0.000834483,0.993396282,-0.00662056,0.006673628,0.01666753
1786181236.939798355,-0.019798627,-0.000834483,0.993396282,-0.00662056,0.006673628,0.01666753
1786181236.945499420,0.011451373,-0.001078624,0.99266386,-0.001294237,0.003477834,0.014537003
1786181236.949831724,0.011451373,-0.001078624,0.99266386,-0.001294237,0.003477834,0.014537003
1786181236.955577374,-0.006126753,-0.006449718,0.989001751,0.004032086,0.000282042,0.01134121
1786181236.959618330,-0.006126753,-0.006449718,0.989001751,0.004032086,0.000282042,0.01134121
1786181236.965502262,-0.028099408,-0.003031749,1.002429485,0.001901557,0.003477834,0.015602268
1786181236.969650269,-0.028099408,-0.003031749,1.002429485,0.001901557,0.003477834,0.015602268
1786181236.975496054,-0.00905644,-0.004984874,0.993152142,0.007227879,0.001347305,0.017732795
1786181236.979740143,-0.00905644,-0.004984874,0.993152142,0.007227879,0.001347305,0.017732795
1786181236.985491753,0.001685747,-0.000346202,0.995593548,0.006162615,0.002412571,0.015602268
1786181236.989769936,0.001685747,-0.000346202,0.995593548,0.006162615,0.002412571,0.015602268
1786181236.995512009,-0.01686894,-0.004984874,0.995837688,0.000836292,-0.000783224,0.015602268
1786181236.999694586,-0.01686894,-0.004984874,0.995837688,0.000836292,-0.000783224,0.015602268
1786181237.005493402,-0.012474408,-0.004008311,0.991199017,-0.001294237,0.006673628,0.014537003
1786181237.010044813,-0.012474408,-0.004008311,0.991199017,-0.001294237,0.006673628,0.014537003
1786181237.015492439,-0.000267378,-0.002299327,0.994861126,0.007227879,0.001347305,0.017732795
1786181237.019497633,-0.000267378,-0.002299327,0.994861126,0.007227879,0.001347305,0.017732795
1786181237.025593519,-0.012474408,-0.004252452,0.992175579,-0.003424766,0.002412571,0.01666753
1786181237.029570818,-0.012474408,-0.004252452,0.992175579,-0.003424766,0.002412571,0.01666753
1786181237.035489559,-0.020042768,-0.001322764,0.998523235,-0.000228972,0.002412571,0.01666753
1786181237.039824486,-0.020042768,-0.001322764,0.998523235,-0.000228972,0.002412571,0.01666753
1786181237.045494795,-0.008568158,-0.004496593,0.990710735,0.001901557,0.002412571,0.017732795
1786181237.049707651,-0.008568158,-0.004496593,0.990710735,0.001901557,0.002412571,0.017732795
1786181237.055503607,0.000953326,-0.000346202,0.993640423,-0.000228972,0.003477834,0.012406472
1786181237.059863806,0.000953326,-0.000346202,0.993640423,-0.000228972,0.003477834,0.012406472
1786181237.065506697,-0.011497846,-0.006449718,0.99266386,-0.001294237,0.001347305,0.014537003
1786181237.069680452,-0.011497846,-0.006449718,0.99266386,-0.001294237,0.001347305,0.014537003
1786181237.075492144,-0.01686894,-0.004252452,0.994616985,0.000836292,0.003477834,0.015602268
1786181237.079814911,-0.01686894,-0.004252452,0.994616985,0.000836292,0.003477834,0.015602268
1786181237.085362911,-0.016624799,-0.005473155,0.994616985,0.000836292,0.002412571,0.018798061
1786181237.089708567,-0.011986127,0.000142079,0.995837688,0.000836292,0.001347305,0.01666753
1786181237.095498800,-0.005638471,0.00038622,0.994861126,0.000836292,0.003477834,0.017732795
1786181237.099750280,-0.004173628,-0.002055186,0.989245892,0.000836292,0.003477834,0.017732795
1786181237.105489016,-0.006126753,-0.004496593,0.989734173,0.001901557,0.001347305,0.018798061
1786181237.109865427,-0.010277143,-0.003764171,0.998034954,0.004032086,0.002412571,0.017732795
1786181237.115491629,-0.011253705,-0.004984874,0.99266386,0.002966821,0.003477834,0.012406472
1786181237.119955301,-0.014427533,-0.005229014,0.994861126,0.002966821,0.000282042,0.025189646
1786181237.125202417,-0.010033002,-0.001322764,0.995105267,-0.005555294,0.003477834,0.015602268
1786181237.129598856,-0.004417768,-0.002787608,0.994128704,-0.003424766,0.003477834,0.017732795
1786181237.135491371,-0.005638471,-0.004984874,0.989734173,-0.002359501,0.003477834,0.01134121
1786181237.139518499,-0.009544721,-0.005961436,0.991687298,0.000836292,-0.001848487,0.01666753
1786181237.145488977,-0.014427533,-0.002787608,0.999499798,-0.002359501,0.001347305,0.012406472
1786181237.149939537,-0.019554486,-0.002299327,0.996081829,0.000836292,0.002412571,0.015602268
1786181237.155525684,-0.02101933,-0.003764171,0.995593548,0.002966821,0.000282042,0.023059119
1786181237.159685612,-0.008079877,0.001118642,0.994128704,-0.003424766,0.0045431,0.015602268
1786181237.165499210,0.001441607,0.000630361,0.991931438,-0.000228972,0.005608363,0.019863326
1786181237.169823885,0.003883013,-0.004984874,0.986560345,-0.00449003,0.005608363,0.015602268
1786181237.175511360,0.000220904,-0.008646984,0.989245892,-0.000228972,0.000282042,0.015602268
1786181237.179587364,-0.012718549,-0.004496593,0.998034954,-0.002359501,0.000282042,0.00921068
1786181237.185494661,-0.023949018,-0.004008311,0.998034954,0.004032086,0.001347305,0.017732795
1786181237.189730644,-0.026878705,-0.002543468,0.99657011,0.011488937,-0.000783224,0.019863326
1786181237.195487738,-0.01686894,0.00038622,0.997546673,0.000836292,0.003477834,0.017732795
1786181237.199730635,-0.001732221,0.000630361,0.99266386,-0.00449003,0.006673628,0.018798061
1786181237.205484390,0.003883013,-0.00352003,0.987781048,0.000836292,0.0045431,0.013471738
1786181237.209945202,0.000709185,-0.006449718,0.990222454,-0.003424766,0.001347305,0.01666753
1786181237.215508461,-0.010033002,-0.003031749,0.999255657,0.007227879,-0.000783224,0.017732795
1786181237.219492197,-0.02101933,-0.002299327,0.997302532,-0.003424766,0.003477834,0.010275945
1786181237.225484848,-0.02468144,-0.004008311,0.995105267,-0.005555294,0.005608363,0.012406472
1786181237.229912996,-0.011741986,-0.002299327,0.995105267,-0.00449003,0.005608363,0.017732795
1786181237.235496283,0.003394732,-0.002055186,0.991199017,-0.000228972,0.005608363,0.019863326
1786181237.239496708,0.006812701,-0.006449718,0.987781048,0.007227879,0.001347305,0.019863326
1786181237.245495319,-0.001976362,-0.00742628,0.991443157,-0.000228972,0.000282042,0.014537003
1786181237.249767780,-0.018577924,-0.00352003,1.002185345,0.002966821,0.000282042,0.010275945
1786181237.255558252,-0.030784955,-0.000834483,1.000964642,-0.00662056,0.006673628,0.01134121
1786181237.259809732,-0.029564252,-0.002543468,0.994616985,-0.007685823,0.006673628,0.01666753
1786181237.265490770,-0.011009565,-0.000834483,0.994372845,-0.000228972,0.0045431,0.023059119
1786181237.269752741,0.008765826,-0.001811046,0.991687298,0.002966821,0.005608363,0.020928588
1786181237.275483608,0.013648639,-0.004740733,0.987536907,0.007227879,0.002412571,0.01666753
1786181237.279747963,0.002906451,-0.007914562,0.989245892,-0.001294237,0.000282042,0.013471738
1786181237.285497189,-0.01686894,-0.004496593,1.00047636,-0.000228972,0.001347305,0.014537003
1786181237.289798498,-0.029564252,-0.001322764,1.00047636,0.000836292,0.002412571,0.01666753
1786181237.295502901,-0.029564252,-0.005473155,0.993396282,0.002966821,0.003477834,0.020928588
1786181237.299715042,-0.01296269,-0.001078624,0.995837688,0.007227879,0.002412571,0.021993853
1786181237.305499077,0.005836138,-0.001811046,0.989734173,0.000836292,0.003477834,0.015602268
1786181237.309747934,0.009009967,-0.002787608,0.990222454,-0.000228972,0.0045431,0.015602268
1786181237.315498829,-0.004173628,-0.005473155,0.989734173,0.001901557,0.000282042,0.013471738
1786181237.319702148,-0.021507611,-0.001566905,1.001941204,-0.002359501,0.000282042,0.01666753
1786181237.325498819,-0.027855268,-0.001078624,0.998767376,0.004032086,0.002412571,0.015602268
1786181237.329590559,-0.021995893,-0.004740733,0.991199017,0.007227879,0.001347305,0.024124384
1786181237.335493803,-0.00124394,-0.001811046,0.991687298,0.009358408,0.002412571,0.020928588
1786181237.339803457,0.014625201,-0.00352003,0.989245892,0.006162615,0.002412571,0.01666753
1786181237.345347404,0.008277545,-0.005717296,0.989978313,0.004032086,0.000282042,0.013471738
1786181237.349704504,-0.012474408,-0.007670421,0.99266386,0.000836292,-0.001848487,0.017732795
1786181237.355493069,-0.030784955,-0.002787608,1.003406048,0.000836292,0.000282042,0.01666753
1786181237.360178947,-0.03566777,-0.001322764,1.000720501,-0.000228972,0.003477834,0.019863326
1786181237.365507126,-0.02492558,-0.001811046,0.990954876,0.000836292,0.003477834,0.023059119
1786181237.369607210,0.000220904,-0.000590343,0.992175579,-0.00662056,0.005608363,0.01666753
1786181237.375491142,0.017554889,0.00038622,0.989490032,-0.002359501,0.003477834,0.01666753
1786181237.379957199,0.011207232,-0.004496593,0.989001751,-0.000228972,0.001347305,0.01134121
1786181237.385354519,-0.009544721,-0.007670421,0.992175579,-0.000228972,-0.000783224,0.015602268
1786181237.389687538,-0.026146283,-0.004008311,1.001452923,0.000836292,0.000282042,0.014537003
1786181237.395502090,-0.02858769,-0.002299327,0.999011517,0.004032086,0.003477834,0.020928588
1786181237.399677992,-0.018822065,-0.006449718,0.991443157,0.000836292,0.003477834,0.021993853
1786181237.405491114,-0.002464643,-0.002787608,0.991931438,0.001901557,0.001347305,0.019863326
1786181237.409801006,0.007300982,-0.003031749,0.993640423,0.009358408,0.000282042,0.018798061
1786181237.415505171,-0.000755659,-0.003031749,0.991199017,0.006162615,-0.000783224,0.013471738
1786181237.419550896,-0.015892377,-0.006449718,0.993152142,-0.001294237,0.000282042,0.01666753
1786181237.425506830,-0.02492558,-0.001566905,0.999255657,0.00509735,0.000282042,0.01666753
1786181237.429589272,-0.021507611,-0.001322764,0.99657011,-0.009816352,0.006673628,0.013471738
1786181237.435494423,-0.00930058,-0.004496593,0.989734173,-0.000228972,0.003477834,0.018798061
1786181237.439721107,0.003150591,-0.003031749,0.992175579,0.002966821,0.003477834,0.017732795
1786181237.445504427,0.009254107,-0.001566905,0.994128704,0.007227879,0.001347305,0.018798061
1786181237.449610949,-0.002708784,-0.004008311,0.992908001,0.007227879,-0.000783224,0.017732795
1786181237.455490589,-0.017357221,-0.006205577,0.993640423,-0.000228972,0.000282042,0.015602268
1786181237.459827185,-0.02492558,-0.004496593,1.00023222,-0.001294237,0.000282042,0.01666753
1786181237.465550184,-0.021751752,-0.001078624,0.998034954,-0.002359501,0.0045431,0.017732795
1786181237.470003605,-0.01296269,-0.005473155,0.989978313,-0.003424766,0.0045431,0.014537003
1786181237.475524426,-0.003685346,-0.001566905,0.995105267,0.004032086,0.001347305,0.021993853
1786181237.479568958,0.002174029,0.000630361,0.992175579,0.006162615,0.002412571,0.020928588
1786181237.485504389,-0.002220503,-0.002055186,0.993152142,0.007227879,0.000282042,0.019863326
1786181237.489791870,-0.011986127,-0.005961436,0.990222454,0.000836292,0.000282042,0.015602268
1786181237.495497942,-0.015404096,-0.004496593,0.997058392,-0.00449003,0.002412571,0.017732795
1786181237.499618053,-0.013450971,-0.00352003,0.996081829,-0.003424766,0.005608363,0.013471738
1786181237.505514622,-0.013939252,-0.008158702,0.991199017,-0.009816352,0.005608363,0.01134121
1786181237.509946823,-0.009544721,-0.002787608,0.99632597,-0.001294237,0.002412571,0.01666753
1786181237.515266180,-0.00515019,-0.000834483,0.996081829,-0.005555294,0.0045431,0.01134121
1786181237.519645214,-0.008079877,-0.001078624,0.994616985,-0.005555294,0.0045431,0.015602268
1786181237.525501251,-0.01296269,-0.004496593,0.98875761,0.000836292,0.002412571,0.015602268
1786181237.529727221,-0.014183393,-0.00352003,0.997058392,-0.001294237,0.002412571,0.015602268
1786181237.535500765,-0.01320683,-0.003031749,0.997058392,-0.002359501,0.003477834,0.014537003
1786181237.539742947,-0.011497846,-0.004496593,0.989978313,0.007227879,0.002412571,0.020928588
1786181237.545503616,-0.007103315,-0.00352003,0.996081829,0.006162615,0.002412571,0.017732795
1786181237.549852848,-0.001732221,0.001118642,0.993640423,0.006162615,0.002412571,0.017732795
1786181237.555502892,-0.001976362,-0.00352003,0.99266386,-0.000228972,0.0045431,0.018798061
1786181237.559617519,-0.007103315,-0.008402843,0.988269329,-0.000228972,0.002412571,0.014537003
1786181237.565498829,-0.012718549,-0.003764171,0.99657011,-0.00662056,0.002412571,0.014537003
1786181237.569920063,-0.018333783,-0.005473155,0.998767376,-0.000228972,0.002412571,0.014537003
1786181237.575525999,-0.021507611,-0.00352003,0.994616985,-0.001294237,0.003477834,0.012406472
1786181237.579637527,-0.019554486,-0.001322764,0.998523235,0.001901557,0.002412571,0.018798061
1786181237.585503340,-0.006370893,0.003560048,0.995349407,0.001901557,0.005608363,0.020928588
1786181237.589751720,0.001685747,-0.001322764,0.990222454,-0.00449003,0.0045431,0.014537003
1786181237.595623255,0.001685747,-0.006205577,0.98460722,-0.000228972,0.001347305,0.018798061
1786181237.599668503,-0.002708784,-0.005717296,0.994616985,-0.003424766,0.000282042,0.017732795
1786181237.605510235,-0.012474408,-0.006205577,0.998767376,0.00509735,0.000282042,0.013471738
1786181237.609914064,-0.020531049,-0.004740733,0.992908001,-0.001294237,0.003477834,0.015602268
1786181237.615526915,-0.021751752,-0.004008311,0.999499798,-0.008751089,0.0045431,0.013471738
1786181237.619829893,-0.011009565,0.001118642,0.995349407,-0.005555294,0.0045431,0.018798061
1786181237.625498295,-0.002708784,-0.002055186,0.991687298,-0.005555294,0.005608363,0.015602268
1786181237.629751682,-0.000511518,-0.005961436,0.986316204,0.00509735,0.001347305,0.019863326
1786181237.635500669,-0.006859174,-0.004252452,0.99657011,-0.000228972,-0.000783224,0.013471738
1786181237.639755249,-0.016380658,-0.001566905,0.998767376,-0.000228972,0.003477834,0.014537003
1786181237.645530224,-0.023460736,-0.002787608,0.993640423,0.004032086,0.002412571,0.021993853
1786181237.649607658,-0.017357221,-0.000834483,0.996081829,-0.001294237,0.003477834,0.017732795
1786181237.655489683,-0.002464643,-0.001078624,0.992908001,0.009358408,0.002412571,0.021993853
1786181237.659776211,0.007789263,-0.002543468,0.989978313,0.001901557,0.003477834,0.015602268
1786181237.665278435,0.004371294,-0.009623546,0.985339642,-0.000228972,0.000282042,0.014537003
1786181237.669698477,-0.00905644,-0.005229014,0.998523235,-0.001294237,-0.000783224,0.010275945
1786181237.675489664,-0.026390424,-0.004008311,1.002917767,-0.002359501,0.003477834,0.015602268
1786181237.679910183,-0.032982223,-0.001811046,0.999255657,0.004032086,0.003477834,0.01666753
1786181237.685605049,-0.022972455,0.000142079,0.996081829,0.007227879,0.001347305,0.024124384
1786181237.689656734,-0.001488081,0.00038622,0.99241972,0.002966821,0.0045431,0.019863326
1786181237.695495844,0.012427935,-0.001811046,0.988269329,0.002966821,0.003477834,0.015602268
1786181237.699835300,0.008521685,-0.008158702,0.985583782,-0.000228972,0.000282042,0.01134121
1786181237.705497503,-0.007347456,-0.005717296,0.995593548,0.004032086,-0.003979016,0.01666753
1786181237.709743977,-0.022972455,-0.002787608,1.001941204,0.001901557,0.001347305,0.013471738
1786181237.715492964,-0.030296674,-0.003031749,0.995593548,0.00509735,0.002412571,0.020928588
1786181237.719789028,-0.020531049,-0.00352003,0.995105267,0.002966821,0.003477834,0.021993853
1786181237.725496054,0.000709185,-0.001322764,0.99266386,-0.007685823,0.005608363,0.015602268
1786181237.729596376,0.01023067,-0.004008311,0.990222454,0.001901557,0.002412571,0.01666753
1786181237.735490799,0.001197466,-0.006205577,0.989490032,0.004032086,0.000282042,0.01134121
1786181237.739761353,-0.017601361,-0.00352003,0.99657011,0.002966821,-0.000783224,0.01666753
1786181237.745491266,-0.030052533,0.000874501,1.003406048,0.000836292,0.001347305,0.014537003
1786181237.749719620,-0.029320111,-0.001566905,0.995105267,0.002966821,0.003477834,0.021993853
1786181237.755511522,-0.011986127,-0.002787608,0.991931438,0.002966821,0.0045431,0.018798061
1786181237.759547710,0.010718951,-0.001811046,0.990710735,-0.001294237,0.0045431,0.017732795
1786181237.765506029,0.017554889,-0.003031749,0.987781048,0.006162615,0.001347305,0.017732795
1786181237.769680262,0.003394732,-0.009135265,0.989490032,0.001901557,-0.000783224,0.01134121
1786181237.775520802,-0.019554486,-0.004984874,0.997790813,-0.003424766,0.001347305,0.012406472
1786181237.779660463,-0.032982223,-0.002543468,1.00438261,0.004032086,0.001347305,0.013471738
1786181237.785507679,-0.031273238,-0.002787608,0.994861126,0.001901557,0.0045431,0.018798061
1786181237.789723158,-0.014183393,-0.00352003,0.99266386,0.000836292,0.003477834,0.020928588
1786181237.795515537,0.007300982,-0.000590343,0.992175579,0.004032086,0.002412571,0.020928588
1786181237.799769402,0.011939654,-0.003031749,0.990222454,0.001901557,0.001347305,0.014537003
1786181237.805495262,-0.001732221,-0.003275889,0.990466595,-0.000228972,0.001347305,0.013471738
1786181237.809767008,-0.017845502,-0.006205577,0.99632597,-0.000228972,-0.000783224,0.01134121
1786181237.815504313,-0.02468144,0.001118642,1.000964642,-0.001294237,0.003477834,0.013471738
1786181237.819733143,-0.018333783,-0.006205577,0.991931438,0.000836292,0.0045431,0.020928588
1786181237.825578451,-0.006370893,-0.004496593,0.992175579,-0.00662056,0.005608363,0.014537003
1786181237.829499722,0.004859576,-0.003764171,0.991931438,0.004032086,0.001347305,0.021993853
1786181237.835508823,0.002174029,-0.002299327,0.994616985,-0.00449003,0.005608363,0.01134121
1786181237.839789629,-0.012474408,-0.004984874,0.99241972,0.004032086,0.000282042,0.018798061
1786181237.845525026,-0.023949018,-0.00352003,0.998279095,-0.005555294,0.002412571,0.012406472
1786181237.849618912,-0.025902143,-0.000346202,0.999743938,-0.00449003,0.005608363,0.017732795
1786181237.855492830,-0.01686894,-0.003031749,0.99241972,-0.000228972,0.005608363,0.01666753
1786181237.859811783,-0.002708784,-0.003275889,0.990222454,-0.002359501,0.0045431,0.017732795
1786181237.865359068,0.009009967,-0.002055186,0.990954876,0.001901557,0.003477834,0.01666753
1786181237.869607210,0.004615435,-0.001322764,0.992908001,0.000836292,0.001347305,0.008145414
1786181237.875499010,-0.00905644,-0.006693858,0.990222454,-0.002359501,0.002412571,0.010275945
1786181237.879745007,-0.019798627,-0.005473155,0.99657011,-0.001294237,0.002412571,0.018798061
1786181237.885505915,-0.022972455,-0.00352003,0.999743938,0.001901557,0.002412571,0.01666753
1786181237.890046120,-0.017357221,-0.00352003,0.99266386,-0.005555294,0.0045431,0.017732795
1786181237.895141125,-0.011009565,-0.004252452,0.993396282,0.004032086,0.002412571,0.020928588
1786181237.899775267,-0.003441206,-0.000590343,0.995349407,0.001901557,0.003477834,0.01666753
1786181237.905509472,-0.002708784,0.000142079,0.995593548,0.004032086,0.001347305,0.019863326
1786181237.909758091,-0.007835736,-0.003031749,0.989978313,0.002966821,0.002412571,0.017732795
1786181237.915600538,-0.011497846,-0.004984874,0.991687298,0.001901557,0.000282042,0.017732795
1786181237.919692278,-0.012230268,-0.002787608,0.998034954,0.007227879,0.002412571,0.01666753
1786181237.925513983,-0.011009565,-0.004496593,0.993152142,-0.00449003,0.0045431,0.013471738
1786181237.929908991,-0.011497846,-0.006693858,0.99266386,0.007227879,0.002412571,0.018798061
1786181237.935503483,-0.006615034,-0.002299327,0.996081829,-0.002359501,0.002412571,0.01666753
1786181237.939538002,-0.005394331,-0.001322764,0.995593548,0.001901557,0.002412571,0.01666753
1786181237.945484877,-0.010033002,-0.004984874,0.990954876,-0.001294237,0.002412571,0.015602268
1786181237.949786425,-0.012474408,-0.004740733,0.991931438,-0.003424766,0.001347305,0.01666753
1786181237.955491066,-0.015159955,-0.00352003,1.00023222,0.001901557,0.002412571,0.018798061
1786181237.959830761,-0.015648236,-0.00352003,0.994616985,0.001901557,0.005608363,0.014537003
1786181237.965497971,-0.015404096,-0.004008311,0.994128704,0.006162615,0.002412571,0.020928588
1786181237.969573259,-0.006859174,0.000630361,0.994861126,0.006162615,0.002412571,0.019863326
1786181237.975491524,0.000465044,-0.000346202,0.994616985,-0.00449003,0.006673628,0.015602268
1786181237.979600430,0.000465044,-0.005717296,0.986804485,-0.007685823,0.003477834,0.012406472
1786181237.985498428,-0.003685346,-0.006449718,0.991443157,-0.005555294,-0.000783224,0.014537003
1786181237.989697933,-0.012474408,-0.006449718,0.999011517,-0.000228972,0.001347305,0.01134121
1786181237.995492935,-0.019310346,-0.004008311,0.99632597,-0.001294237,0.001347305,0.015602268
1786181237.999735117,-0.024193158,-0.004740733,0.99632597,0.00509735,0.001347305,0.018798061
1786181238.005500793,-0.015404096,-0.000346202,0.996081829,-0.007685823,0.005608363,0.017732795
1786181238.009823322,-0.003441206,0.000142079,0.994861126,-0.00662056,0.005608363,0.014537003
1786181238.015508413,0.001197466,-0.00352003,0.986316204,-0.001294237,0.002412571,0.01666753
1786181238.019614458,0.000220904,-0.004984874,0.991199017,-0.000228972,0.001347305,0.014537003
1786181238.025528193,-0.008568158,-0.00352003,0.999255657,-0.000228972,0.001347305,0.013471738
1786181238.029828548,-0.017357221,-0.00352003,0.995105267,0.00509735,0.001347305,0.015602268
1786181238.035507917,-0.021263471,-0.004740733,0.99632597,-0.00662056,0.003477834,0.013471738
1786181238.039783239,-0.012718549,0.000630361,0.996081829,0.00509735,0.003477834,0.021993853
1786181238.045509577,0.000709185,-0.002055186,0.991931438,-0.003424766,0.006673628,0.013471738
1786181238.049746037,0.002418169,-0.006205577,0.987781048,-0.001294237,0.002412571,0.01666753
1786181238.055491686,-0.005882612,-0.006937999,0.991931438,-0.000228972,-0.000783224,0.010275945
1786181238.059760809,-0.017845502,-0.003764171,1.001941204,-0.001294237,0.000282042,0.01134121
1786181238.065496206,-0.027366986,-0.000834483,0.999499798,-0.000228972,0.002412571,0.015602268
1786181238.069768429,-0.025169721,-0.003031749,0.995105267,-0.00662056,0.005608363,0.015602268
1786181238.075502396,-0.007591596,0.002583486,0.994372845,0.002966821,0.002412571,0.021993853
1786181238.079901218,0.009742389,-0.002055186,0.991687298,-0.010881618,0.005608363,0.013471738
1786181238.085510969,0.012427935,-0.005717296,0.984118938,-0.000228972,0.002412571,0.01666753
1786181238.089637041,-0.000267378,-0.008891124,0.992175579,0.010423672,-0.003979016,0.014537003
1786181238.095498085,-0.018333783,-0.004496593,1.001208782,0.009358408,-0.001848487,0.015602268
1786181238.099922657,-0.03176152,-0.002787608,0.998523235,0.007227879,0.002412571,0.01666753
1786181238.105493546,-0.029808393,-0.004496593,0.995105267,0.000836292,0.0045431,0.018798061
1786181238.109782457,-0.011986127,0.000142079,0.994372845,0.000836292,0.005608363,0.018798061
1786181238.115537167,0.008765826,-0.000834483,0.991443157,-0.002359501,0.0045431,0.014537003
1786181238.119621038,0.01023067,-0.005961436,0.987292767,-0.000228972,0.002412571,0.014537003
1786181238.125512838,-0.003441206,-0.003764171,0.99241972,-0.001294237,-0.000783224,0.01134121
1786181238.129713297,-0.020042768,-0.002787608,1.001941204,-0.003424766,0.002412571,0.014537003
1786181238.135493279,-0.027855268,0.000142079,0.998034954,0.001901557,0.003477834,0.018798061
1786181238.140018940,-0.022240033,-0.006937999,0.991199017,-0.000228972,0.0045431,0.019863326
1786181238.145504951,-0.001976362,-0.001811046,0.994616985,-0.00449003,0.005608363,0.017732795
1786181238.149844408,0.013648639,-0.003031749,0.990222454,0.00509735,0.002412571,0.018798061
1786181238.155493736,0.007300982,-0.007182139,0.988269329,0.00509735,0.001347305,0.015602268
1786181238.159733772,-0.012718549,-0.007182139,0.994861126,0.00509735,-0.002913753,0.01666753
1786181238.165496111,-0.030540815,-0.002299327,1.002917767,0.000836292,0.001347305,0.015602268
1786181238.169833899,-0.033226363,0.000142079,0.999988079,-0.00449003,0.005608363,0.012406472
1786181238.175329208,-0.021507611,-0.003275889,0.990954876,-0.002359501,0.006673628,0.023059119
1786181238.179618359,0.002174029,0.000630361,0.991199017,-0.003424766,0.005608363,0.015602268
1786181238.185502529,0.017554889,-0.002299327,0.989978313,0.002966821,0.003477834,0.019863326
1786181238.189717293,0.009498248,-0.005229014,0.989490032,-0.00662056,0.003477834,0.012406472
1786181238.195348978,-0.011741986,-0.00742628,0.99241972,0.004032086,-0.001848487,0.017732795
1786181238.199722052,-0.027611127,-0.002543468,1.002673626,-0.001294237,0.001347305,0.014537003
1786181238.205494165,-0.029320111,-0.00352003,0.998767376,-0.011946881,0.005608363,0.01134121
1786181238.209784985,-0.017357221,-0.004496593,0.991687298,-0.000228972,0.003477834,0.020928588
1786181238.215497494,-0.000267378,-0.002299327,0.994128704,-0.00662056,0.005608363,0.01666753
1786181238.219725609,0.007789263,-0.000590343,0.99241972,0.002966821,0.002412571,0.014537003
1786181238.225515842,-0.001488081,-0.00352003,0.991687298,0.00509735,-0.000783224,0.014537003
1786181238.229571819,-0.017357221,-0.00352003,0.993152142,-0.002359501,0.001347305,0.013471738
1786181238.235514879,-0.024193158,-0.002299327,0.999255657,-0.00449003,0.0045431,0.014537003
1786181238.239880085,-0.019798627,-0.001322764,0.996814251,0.00509735,0.003477834,0.017732795
1786181238.245501995,-0.008079877,-0.005473155,0.989734173,0.00509735,0.001347305,0.019863326
1786181238.250123262,0.003394732,-0.00352003,0.994372845,0.008293143,-0.000783224,0.021993853
1786181238.255353212,0.006812701,-0.002055186,0.99241972,-0.002359501,0.003477834,0.012406472
1786181238.259588480,-0.005638471,-0.00352003,0.994128704,0.004032086,0.000282042,0.015602268
1786181238.265510559,-0.019554486,-0.006449718,0.992908001,0.00509735,-0.000783224,0.01666753
1786181238.269826412,-0.026878705,-0.003275889,1.001208782,0.004032086,0.000282042,0.019863326
1786181238.275500059,-0.021507611,-0.001811046,0.997058392,0.00509735,0.003477834,0.019863326
1786181238.279655695,-0.01320683,-0.004496593,0.989245892,-0.00662056,0.006673628,0.015602268
1786181238.285503864,-0.000755659,-0.000834483,0.993884563,0.004032086,0.002412571,0.01666753
1786181238.289926052,0.004371294,-0.002299327,0.993152142,0.004032086,0.0045431,0.017732795
1786181238.295504570,-0.001732221,-0.002299327,0.993152142,0.008293143,0.000282042,0.01666753
1786181238.299650908,-0.009544721,-0.00742628,0.990222454,0.002966821,0.000282042,0.015602268
1786181238.305509806,-0.014915815,-0.002543468,0.999988079,-0.000228972,0.001347305,0.014537003
1786181238.309907436,-0.015404096,-0.004252452,0.994861126,0.00509735,0.003477834,0.01666753
1786181238.315376043,-0.014183393,-0.005473155,0.991931438,-0.00449003,0.0045431,0.014537003
1786181238.319751501,-0.010521283,-0.003031749,0.996814251,-0.002359501,0.002412571,0.019863326
1786181238.325596094,-0.007103315,-0.001322764,0.995837688,0.000836292,0.002412571,0.01666753
1786181238.329658270,-0.008079877,-0.000834483,0.994128704,0.001901557,0.0045431,0.017732795
1786181238.335491896,-0.010033002,-0.003764171,0.98851347,0.000836292,0.001347305,0.01666753
1786181238.339666605,-0.011497846,-0.004252452,0.99657011,-0.000228972,0.003477834,0.017732795
1786181238.345501184,-0.01296269,-0.001811046,0.997058392,-0.005555294,0.006673628,0.012406472
1786181238.350227356,-0.012230268,-0.005961436,0.991687298,-0.007685823,0.005608363,0.01666753
1786181238.355619192,-0.00930058,-0.002299327,0.993640423,-0.003424766,0.0045431,0.017732795
1786181238.359796762,-0.004173628,0.000874501,0.994616985,0.00509735,0.002412571,0.021993853
1786181238.365502357,-0.003197065,-0.004496593,0.991687298,-0.002359501,0.003477834,0.013471738
1786181238.369805813,-0.007103315,-0.005717296,0.990222454,0.001901557,0.000282042,0.017732795
1786181238.375511646,-0.011009565,-0.006449718,0.996081829,-0.003424766,0.002412571,0.01134121
1786181238.379708052,-0.018333783,-0.002299327,0.999255657,0.001901557,0.002412571,0.012406472
1786181238.385507107,-0.021507611,-0.004008311,0.993640423,0.011488937,0.000282042,0.021993853
1786181238.389582396,-0.015892377,-0.000834483,0.99657011,-0.002359501,0.0045431,0.017732795
1786181238.395496368,-0.004661909,0.001606923,0.994372845,0.007227879,0.002412571,0.025189646
1786181238.399713039,0.002418169,-0.003031749,0.989001751,-0.002359501,0.0045431,0.014537003
1786181238.405502558,0.002418169,-0.007182139,0.987292767,-0.001294237,0.002412571,0.015602268
1786181238.409840822,-0.004173628,-0.006937999,0.994128704,-0.00662056,0.002412571,0.01134121
1786181238.415616274,-0.016380658,-0.004008311,0.999988079,-0.001294237,0.003477834,0.013471738
1786181238.419699192,-0.024437299,-0.004984874,0.993640423,0.009358408,0.000282042,0.018798061
1786181238.425495863,-0.021995893,-0.002299327,0.999255657,-0.002359501,0.0045431,0.017732795
1786181238.429796457,-0.007591596,-0.000346202,0.997058392,0.008293143,0.003477834,0.020928588
1786181238.435600519,-0.000755659,-0.002299327,0.989490032,-0.003424766,0.0045431,0.013471738
1786181238.439579964,0.000709185,-0.006205577,0.989734173,-0.001294237,0.001347305,0.01666753
1786181238.445496082,-0.007835736,-0.004740733,0.995105267,0.001901557,0.001347305,0.017732795
1786181238.449826002,-0.017357221,-0.001566905,1.000720501,0.000836292,0.003477834,0.015602268
1786181238.455489874,-0.022972455,-0.002055186,0.99266386,-0.002359501,0.005608363,0.017732795
1786181238.459892511,-0.016380658,-0.001078624,0.996814251,0.001901557,0.003477834,0.019863326
1786181238.465523005,0.001197466,0.000630361,0.990710735,-0.001294237,0.0045431,0.018798061
1786181238.469714642,0.008277545,-0.006449718,0.989734173,0.001901557,0.002412571,0.017732795
1786181238.475505590,0.003394732,-0.00742628,0.98851347,0.002966821,-0.000783224,0.014537003
1786181238.479781389,-0.013939252,-0.008158702,0.998523235,-0.005555294,0.001347305,0.007080153
1786181238.485498667,-0.027366986,-0.001811046,1.00413847,0.001901557,0.002412571,0.015602268
1786181238.489750147,-0.033958785,-0.002299327,0.994372845,-0.00449003,0.005608363,0.018798061
1786181238.495506525,-0.02101933,-0.000590343,0.99657011,0.002966821,0.003477834,0.025189646
1786181238.499767542,0.001441607,0.001362782,0.991931438,-0.000228972,0.006673628,0.019863326
1786181238.505502462,0.013892779,-0.003031749,0.989490032,0.001901557,0.0045431,0.017732795
1786181238.509772062,0.009254107,-0.006205577,0.985583782,0.004032086,0.000282042,0.015602268
1786181238.515497684,-0.007591596,-0.006693858,0.998034954,0.002966821,-0.000783224,0.01134121
1786181238.519814253,-0.02468144,-0.002299327,1.000964642,0.006162615,-0.000783224,0.015602268
1786181238.525676727,-0.03176152,-0.005229014,0.995593548,-0.000228972,0.003477834,0.017732795
1786181238.529748678,-0.019554486,-0.00352003,0.996081829,0.000836292,0.003477834,0.023059119
1786181238.535537958,0.000220904,-0.002055186,0.990710735,-0.000228972,0.0045431,0.01666753
1786181238.539718866,0.009986529,-0.002543468,0.990710735,-0.002359501,0.003477834,0.01666753
1786181238.545485020,0.000220904,-0.006205577,0.990222454,0.002966821,-0.001848487,0.014537003
1786181238.549689293,-0.016624799,-0.00352003,0.996814251,0.001901557,-0.000783224,0.013471738
1786181238.555491686,-0.029320111,-0.002787608,1.002917767,-0.000228972,0.0045431,0.012406472
1786181238.559675694,-0.026878705,-0.000834483,0.993640423,-0.008751089,0.005608363,0.015602268
1786181238.565518141,-0.009544721,-0.004008311,0.990954876,-0.002359501,0.0045431,0.019863326
1786181238.569887400,0.011695514,-0.000834483,0.991443157,-0.00449003,0.005608363,0.019863326
1786181238.575542450,0.01438106,-0.005473155,0.98875761,-0.005555294,0.0045431,0.013471738
1786181238.579704523,-0.000999799,-0.008646984,0.991199017,0.006162615,-0.001848487,0.012406472
1786181238.585516930,-0.022484174,-0.004496593,0.999255657,0.002966821,0.000282042,0.01134121
1786181238.589746475,-0.034935348,-0.003031749,1.00413847,-0.00662056,0.005608363,0.014537003
1786181238.595502377,-0.030784955,-0.001322764,0.992908001,0.006162615,0.0045431,0.019863326
1786181238.599709749,-0.011497846,-0.00352003,0.993152142,-0.002359501,0.0045431,0.018798061
1786181238.605498314,0.011207232,0.000630361,0.991199017,0.00509735,0.002412571,0.023059119
1786181238.609888554,0.013160357,-0.002543468,0.989978313,-0.002359501,0.003477834,0.010275945
1786181238.615555286,-0.002220503,-0.00742628,0.989978313,-0.002359501,0.000282042,0.01134121
1786181238.619862795,-0.020042768,-0.004008311,0.998034954,-0.001294237,0.000282042,0.012406472
1786181238.625572443,-0.027855268,-0.001811046,1.002429485,0.001901557,0.003477834,0.01666753
1786181238.629716635,-0.021995893,-0.004740733,0.991687298,0.006162615,0.001347305,0.020928588
1786181238.635505199,-0.007591596,-0.004496593,0.99266386,-0.00662056,0.005608363,0.01666753
1786181238.639733076,0.008033404,-0.002299327,0.99266386,0.001901557,0.003477834,0.014537003
1786181238.645495176,0.005347857,-0.002543468,0.994128704,-0.003424766,0.003477834,0.012406472
1786181238.649782181,-0.011009565,-0.005717296,0.991443157,0.001901557,-0.001848487,0.014537003
1786181238.655490875,-0.025413861,-0.001811046,0.999255657,0.004032086,-0.001848487,0.015602268
1786181238.659617662,-0.026878705,-0.001322764,1.002429485,0.000836292,0.0045431,0.015602268
1786181238.665513277,-0.017845502,-0.001322764,0.989734173,-0.002359501,0.0045431,0.017732795
1786181238.669583559,-0.002708784,-0.004496593,0.991687298,-0.00449003,0.003477834,0.01666753
1786181238.675493956,0.010963092,-0.001811046,0.990466595,0.002966821,0.001347305,0.017732795
1786181238.679884672,0.006812701,-0.003031749,0.994128704,0.004032086,0.000282042,0.01666753
1786181238.685497999,-0.008079877,-0.007670421,0.990222454,-0.000228972,0.002412571,0.013471738
1786181238.689655781,-0.022972455,-0.004008311,0.999011517,-0.001294237,0.000282042,0.014537003
1786181238.695492983,-0.026390424,-0.004008311,1.000964642,-0.000228972,0.002412571,0.015602268
1786181238.699814796,-0.019310346,-0.004008311,0.99241972,-0.003424766,0.005608363,0.015602268
1786181238.705490351,-0.009788861,-0.004252452,0.994128704,0.000836292,0.003477834,0.020928588
1786181238.709791899,0.000953326,-0.000102061,0.993884563,0.001901557,0.003477834,0.015602268
1786181238.715502977,0.000709185,-0.000346202,0.995105267,0.000836292,0.003477834,0.015602268
1786181238.719649792,-0.008324018,-0.004496593,0.988269329,-0.001294237,0.003477834,0.01134121
1786181238.725497961,-0.013939252,-0.003031749,0.994616985,0.002966821,0.001347305,0.01666753
1786181238.729765177,-0.015404096,-0.002543468,0.999255657,-0.000228972,0.002412571,0.014537003
1786181238.735497236,-0.011009565,-0.005961436,0.991687298,-0.002359501,0.0045431,0.014537003
1786181238.739793301,-0.008568158,-0.007182139,0.993640423,0.010423672,0.000282042,0.026254911
1786181238.745492697,-0.002708784,-0.002299327,0.997058392,0.001901557,0.002412571,0.013471738
1786181238.749817848,-0.006126753,-0.000834483,0.995593548,0.008293143,0.001347305,0.019863326
1786181238.755513668,-0.014183393,-0.004984874,0.991931438,-0.008751089,0.003477834,0.012406472
1786181238.759846210,-0.018089643,-0.002299327,0.994861126,-0.003424766,0.001347305,0.020928588
1786181238.765571833,-0.016624799,-0.002299327,0.998523235,-0.002359501,0.002412571,0.01666753
1786181238.769500494,-0.011497846,-0.002055186,0.990710735,-0.00449003,0.0045431,0.017732795
1786181238.775495529,-0.007835736,-0.005717296,0.991687298,0.007227879,0.001347305,0.021993853
1786181238.779829264,-0.000267378,0.001118642,0.995837688,0.001901557,0.001347305,0.019863326
1786181238.785519361,-0.000511518,-0.001811046,0.991687298,0.002966821,0.003477834,0.017732795
1786181238.789715528,-0.006859174,-0.005717296,0.989978313,0.00509735,0.001347305,0.01666753
1786181238.795534372,-0.012718549,-0.005961436,0.993396282,-0.000228972,0.000282042,0.01666753
1786181238.799582005,-0.014915815,-0.004496593,1.00023222,0.006162615,0.000282042,0.020928588
1786181238.805509567,-0.017845502,-0.004008311,0.994128704,0.00509735,0.002412571,0.017732795
1786181238.809858084,-0.017357221,-0.004740733,0.99657011,-0.002359501,0.003477834,0.01666753
1786181238.815357447,-0.010033002,-0.000102061,0.996081829,-0.005555294,0.0045431,0.017732795
1786181238.819758415,-0.002952924,0.001118642,0.994616985,-0.003424766,0.005608363,0.012406472
1786181238.825535059,-0.003197065,-0.00352003,0.987048626,-0.008751089,0.0045431,0.015602268
1786181238.829802275,-0.006126753,-0.004984874,0.991443157,0.000836292,0.000282042,0.015602268
1786181238.835371971,-0.009544721,-0.002787608,0.998767376,-0.010881618,0.005608363,0.010275945
1786181238.839648008,-0.014427533,-0.004984874,0.994616985,0.001901557,0.002412571,0.017732795
1786181238.845497847,-0.017357221,-0.003764171,0.995349407,-0.005555294,0.005608363,0.013471738
1786181238.849687576,-0.011741986,-0.002299327,0.996081829,0.004032086,0.001347305,0.017732795
1786181238.855496407,-0.003441206,0.001118642,0.994128704,-0.000228972,0.0045431,0.01666753
1786181238.859762192,-0.003197065,-0.006693858,0.988269329,0.001901557,0.001347305,0.015602268
1786181238.865524292,-0.007591596,-0.004496593,0.99241972,0.004032086,-0.000783224,0.015602268
1786181238.869501591,-0.007591596,-0.004496593,0.99241972,0.004032086,-0.000783224,0.015602268
1786181238.875514746,-0.020286908,-0.002055186,0.996081829,-0.001294237,0.003477834,0.013471738
1786181238.879646301,-0.020042768,-0.002299327,0.995105267,-0.00449003,0.003477834,0.017732795
1786181238.885496855,-0.008568158,0.000142079,0.996081829,-0.003424766,0.0045431,0.018798061
1786181238.890044928,0.003394732,0.001362782,0.990710735,-0.002359501,0.003477834,0.015602268
1786181238.895367622,0.005591997,-0.007914562,0.986560345,-0.00449003,0.003477834,0.015602268
1786181238.899673939,-0.000023237,-0.007182139,0.990466595,-0.001294237,0.001347305,0.015602268
1786181238.905495167,-0.013939252,-0.005961436,1.000720501,-0.000228972,0.000282042,0.013471738
1786181238.909817696,-0.025413861,-0.004252452,0.998279095,-0.001294237,0.003477834,0.014537003
1786181238.915501595,-0.02858769,-0.004496593,0.997546673,0.001901557,0.003477834,0.020928588
1786181238.919737101,-0.016136518,0.001362782,0.997058392,-0.001294237,0.005608363,0.014537003
1786181238.925519943,-0.000511518,0.000630361,0.991931438,-0.005555294,0.0045431,0.017732795
1786181238.929681778,-0.000511518,0.000630361,0.991931438,-0.005555294,0.0045431,0.017732795
1786181238.935494661,0.000220904,-0.00742628,0.990466595,0.002966821,0.000282042,0.018798061
1786181238.939681768,0.000220904,-0.00742628,0.990466595,0.002966821,0.000282042,0.018798061
1786181238.945506096,-0.022728315,-0.003031749,0.997058392,-0.00449003,0.003477834,0.014537003
1786181238.949752569,-0.022484174,-0.002787608,0.993152142,0.004032086,0.002412571,0.01666753
1786181238.955492735,-0.011253705,-0.001078624,0.995593548,-0.002359501,0.0045431,0.020928588
1786181238.959755898,0.002174029,-0.001811046,0.991199017,0.004032086,0.002412571,0.018798061
1786181238.965503693,0.004859576,-0.007182139,0.989245892,0.000836292,0.001347305,0.015602268
1786181238.969824314,-0.006615034,-0.006937999,0.991931438,0.001901557,0.000282042,0.014537003
1786181238.975502491,-0.02077519,-0.004496593,1.00413847,0.000836292,0.001347305,0.015602268
1786181238.979720831,-0.02077519,-0.004496593,1.00413847,0.000836292,0.001347305,0.015602268
1786181238.985497952,-0.02492558,-0.001811046,0.993640423,0.001901557,0.0045431,0.021993853
1786181238.989899397,-0.00515019,0.000142079,0.994616985,-0.001294237,0.0045431,0.021993853
1786181238.995492458,0.012183795,0.000874501,0.987536907,0.008293143,0.003477834,0.020928588
1786181238.999721050,0.012183795,0.000874501,0.987536907,0.008293143,0.003477834,0.020928588
1786181239.005504131,-0.000267378,-0.007670421,0.990710735,0.007227879,-0.002913753,0.015602268
1786181239.009936333,-0.02101933,-0.004984874,1.002429485,0.006162615,-0.000783224,0.012406472
1786181239.015365839,-0.033958785,-0.002055186,1.001452923,0.000836292,0.003477834,0.014537003
1786181239.019719124,-0.033958785,-0.002055186,1.001452923,0.000836292,0.003477834,0.014537003
1786181239.025642157,-0.010033002,-0.001322764,0.994861126,-0.002359501,0.003477834,0.020928588
1786181239.029662371,-0.010033002,-0.001322764,0.994861126,-0.002359501,0.003477834,0.020928588
1786181239.035505772,0.011207232,-0.002787608,0.988269329,0.006162615,0.000282042,0.017732795
1786181239.039726257,0.011207232,-0.002787608,0.988269329,0.006162615,0.000282042,0.017732795
1786181239.045499563,-0.02101933,-0.000834483,1.00047636,-0.00449003,0.003477834,0.01134121
1786181239.049667835,-0.02101933,-0.000834483,1.00047636,-0.00449003,0.003477834,0.01134121
1786181239.055493355,-0.022240033,-0.00352003,0.993396282,0.000836292,0.003477834,0.017732795
1786181239.059500933,-0.022240033,-0.00352003,0.993396282,0.000836292,0.003477834,0.017732795
1786181239.065650225,0.011695514,-0.002787608,0.991687298,0.004032086,0.001347305,0.014537003
1786181239.069609880,0.011695514,-0.002787608,0.991687298,0.004032086,0.001347305,0.014537003
1786181239.075503111,-0.011009565,-0.006693858,0.995105267,0.006162615,-0.001848487,0.012406472
1786181239.079721451,-0.011009565,-0.006693858,0.995105267,0.006162615,-0.001848487,0.012406472
1786181239.085503817,-0.033226363,-0.000590343,0.999988079,0.010423672,0.001347305,0.021993853
1786181239.089761496,-0.033226363,-0.000590343,0.999988079,0.010423672,0.001347305,0.021993853
1786181239.095498085,0.002418169,-0.001078624,0.990710735,0.007227879,0.000282042,0.025189646
1786181239.099978209,0.002418169,-0.001078624,0.990710735,0.007227879,0.000282042,0.025189646
1786181239.105498552,0.009254107,-0.006205577,0.988269329,0.004032086,0.001347305,0.017732795
1786181239.109710693,0.009254107,-0.006205577,0.988269329,0.004032086,0.001347305,0.017732795
1786181239.115504503,-0.027366986,-0.002787608,1.00047636,-0.002359501,0.000282042,0.014537003
1786181239.119772911,-0.027366986,-0.002787608,1.00047636,-0.002359501,0.000282042,0.014537003
1786181239.125533581,-0.019554486,-0.003275889,0.990466595,0.000836292,0.003477834,0.020928588
1786181239.129611731,-0.019554486,-0.003275889,0.990466595,0.000836292,0.003477834,0.020928588
1786181239.135507107,0.008765826,-0.001811046,0.992175579,-0.00449003,0.003477834,0.018798061
1786181239.139592171,0.008765826,-0.001811046,0.992175579,-0.00449003,0.003477834,0.018798061
1786181239.145498991,-0.014915815,-0.005717296,0.99266386,0.000836292,0.000282042,0.015602268
1786181239.149726391,-0.014915815,-0.005717296,0.99266386,0.000836292,0.000282042,0.015602268
1786181239.155496120,-0.022728315,0.000142079,0.997546673,-0.001294237,0.005608363,0.01666753
1786181239.159712553,-0.022728315,0.000142079,0.997546673,-0.001294237,0.005608363,0.01666753
1786181239.165497780,0.005591997,-0.002787608,0.993152142,-0.00662056,0.0045431,0.01666753
1786181239.169885635,0.005591997,-0.002787608,0.993152142,-0.00662056,0.0045431,0.01666753
1786181239.175645351,-0.001732221,-0.004496593,0.993152142,-0.005555294,0.003477834,0.008145414
1786181239.179583073,-0.001732221,-0.004496593,0.993152142,-0.005555294,0.003477834,0.008145414
1786181239.185513973,-0.029808393,-0.001566905,0.999988079,-0.005555294,0.0045431,0.014537003
1786181239.189687967,-0.029808393,-0.001566905,0.999988079,-0.005555294,0.0045431,0.014537003
1786181239.195661783,-0.013695111,-0.004496593,0.989734173,-0.001294237,0.005608363,0.018798061
1786181239.199709654,-0.013695111,-0.004496593,0.989734173,-0.001294237,0.005608363,0.018798061
1786181239.205515146,0.008277545,-0.000834483,0.994128704,0.009358408,0.001347305,0.015602268
1786181239.209908247,0.008277545,-0.000834483,0.994128704,0.009358408,0.001347305,0.015602268
1786181239.215296030,-0.000755659,-0.003275889,0.99241972,0.007227879,0.001347305,0.015602268
1786181239.219785929,-0.012474408,-0.005717296,0.990222454,0.004032086,0.000282042,0.017732795
1786181239.225512743,-0.016380658,-0.002787608,0.995593548,0.006162615,0.003477834,0.01666753
1786181239.229659081,-0.016380658,-0.002787608,0.995593548,0.006162615,0.003477834,0.01666753
1786181239.235518694,-0.007103315,-0.00352003,0.995105267,-0.002359501,0.002412571,0.018798061
1786181239.239763260,-0.007103315,-0.00352003,0.995105267,-0.002359501,0.002412571,0.018798061
1786181239.245504856,-0.007835736,-0.001566905,0.994616985,0.004032086,0.002412571,0.01666753
1786181239.249709606,-0.007835736,-0.001566905,0.994616985,0.004032086,0.002412571,0.01666753
1786181239.255566597,-0.016380658,-0.001566905,0.996081829,-0.008751089,0.005608363,0.01666753
1786181239.259742975,-0.016380658,-0.001566905,0.996081829,-0.008751089,0.005608363,0.01666753
1786181239.265499115,-0.007835736,-0.004496593,0.989245892,-0.002359501,0.003477834,0.013471738
1786181239.269722700,-0.007835736,-0.004496593,0.989245892,-0.002359501,0.003477834,0.013471738
1786181239.275517941,-0.003441206,-0.003275889,0.994128704,0.004032086,0.001347305,0.014537003
1786181239.279585838,-0.000755659,-0.001322764,0.995837688,0.004032086,0.001347305,0.014537003
1786181239.285503626,-0.014427533,-0.006937999,0.992175579,-0.001294237,0.002412571,0.015602268
1786181239.289770126,-0.014427533,-0.006937999,0.992175579,-0.001294237,0.002412571,0.015602268
1786181239.295526266,-0.017845502,-0.00352003,0.997302532,0.001901557,0.002412571,0.013471738
1786181239.299620628,-0.01711308,-0.00352003,0.998767376,0.001901557,0.002412571,0.013471738
1786181239.305511713,-0.015648236,-0.004008311,0.991931438,-0.003424766,0.003477834,0.013471738
1786181239.310148478,-0.010521283,-0.001078624,0.99657011,0.012554201,0.000282042,0.023059119
1786181239.315638065,-0.002708784,0.001606923,0.994616985,-0.005555294,0.0045431,0.013471738
1786181239.319633484,-0.002464643,-0.000102061,0.991687298,-0.00449003,0.0045431,0.018798061
1786181239.325500011,-0.004173628,-0.005961436,0.98875761,-0.005555294,0.002412571,0.013471738
1786181239.329795122,-0.008568158,-0.004496593,0.995593548,-0.008751089,0.002412571,0.013471738
1786181239.335512877,-0.01296269,-0.005473155,0.998034954,0.001901557,0.002412571,0.015602268
1786181239.339689255,-0.018089643,-0.006205577,0.992175579,0.001901557,0.003477834,0.015602268
1786181239.345508575,-0.017601361,-0.002543468,0.998523235,0.00509735,0.002412571,0.020928588
1786181239.349852800,-0.007835736,0.000630361,0.995105267,-0.003424766,0.005608363,0.017732795
1786181239.355518818,-0.00515019,-0.000590343,0.994128704,0.001901557,0.003477834,0.019863326
1786181239.359496832,-0.00515019,-0.004984874,0.987048626,0.002966821,0.000282042,0.018798061
1786181239.365506887,-0.008079877,-0.003031749,0.995105267,-0.002359501,0.001347305,0.01666753
1786181239.369699240,-0.013939252,-0.001078624,0.997790813,0.006162615,0.000282042,0.015602268
1786181239.375495434,-0.017357221,-0.005961436,0.99266386,-0.000228972,0.002412571,0.013471738
1786181239.379776478,-0.015159955,-0.002787608,0.99657011,-0.000228972,0.003477834,0.015602268
1786181239.385346651,-0.003197065,-0.000590343,0.994616985,0.002966821,0.0045431,0.020928588
1786181239.389602900,0.001685747,-0.003764171,0.989978313,0.002966821,0.001347305,0.01666753
1786181239.395512342,-0.00124394,-0.007914562,0.986560345,-0.001294237,0.000282042,0.014537003
1786181239.399542332,-0.011253705,-0.005473155,0.996814251,-0.000228972,0.000282042,0.015602268
1786181239.405494928,-0.022240033,-0.004496593,1.001208782,0.002966821,0.000282042,0.01134121
1786181239.409893274,-0.027122846,-0.002543468,0.994861126,0.00509735,0.002412571,0.015602268
1786181239.415506601,-0.020531049,-0.001078624,0.997546673,-0.005555294,0.006673628,0.01666753
1786181239.419725418,-0.003685346,0.003560048,0.993396282,-0.002359501,0.006673628,0.019863326
1786181239.425505400,0.007300982,-0.002299327,0.989490032,-0.003424766,0.006673628,0.015602268
1786181239.429700613,0.006812701,-0.006937999,0.98485136,0.002966821,-0.000783224,0.018798061
1786181239.435623407,-0.003441206,-0.00742628,0.995593548,0.007227879,-0.001848487,0.015602268
1786181239.439654827,-0.018089643,-0.00352003,1.00047636,0.00509735,0.001347305,0.013471738
1786181239.445497513,-0.027366986,-0.004496593,0.993640423,0.007227879,0.001347305,0.01666753
1786181239.449836969,-0.022972455,-0.001811046,0.999255657,-0.001294237,0.003477834,0.014537003
1786181239.455502510,-0.006370893,-0.000346202,0.993640423,-0.001294237,0.0045431,0.023059119
1786181239.459680080,0.004371294,-0.001811046,0.990466595,-0.005555294,0.003477834,0.014537003
1786181239.465506077,0.002174029,-0.008158702,0.987048626,0.002966821,-0.000783224,0.018798061
1786181239.469714165,-0.008812299,-0.003764171,0.997790813,-0.00662056,0.002412571,0.01134121
1786181239.475584507,-0.022240033,-0.000590343,1.001452923,-0.002359501,0.003477834,0.014537003
1786181239.479707956,-0.027122846,-0.002787608,0.993396282,-0.005555294,0.005608363,0.015602268
1786181239.485505104,-0.017357221,-0.002299327,0.995105267,-0.00662056,0.005608363,0.014537003
1786181239.489933491,0.003150591,-0.000834483,0.992175579,-0.003424766,0.005608363,0.017732795
1786181239.495305777,0.013160357,-0.004252452,0.989245892,-0.000228972,0.002412571,0.012406472
1786181239.499764204,0.00266231,-0.009135265,0.987292767,-0.00662056,0.002412571,0.010275945
1786181239.505506992,-0.014183393,-0.006205577,0.998034954,-0.001294237,-0.000783224,0.012406472
1786181239.509794712,-0.029808393,-0.002299327,1.00413847,-0.000228972,0.002412571,0.013471738
1786181239.515544176,-0.033958785,-0.002299327,0.99657011,-0.001294237,0.0045431,0.019863326
1786181239.519821644,-0.020042768,-0.003275889,0.99632597,0.00509735,0.003477834,0.023059119
1786181239.525533676,0.002906451,0.000630361,0.991443157,-0.00449003,0.005608363,0.01666753
1786181239.529576778,0.015601764,-0.003275889,0.989734173,0.00509735,0.003477834,0.01666753
1786181239.535501957,0.007300982,-0.006937999,0.986316204,-0.000228972,0.000282042,0.013471738
1786181239.539767027,-0.011497846,-0.005229014,0.99657011,-0.002359501,0.000282042,0.012406472
1786181239.545501947,-0.026878705,-0.003031749,1.002429485,0.000836292,0.0045431,0.014537003
1786181239.549664259,-0.030052533,-0.00352003,0.993640423,0.001901557,0.003477834,0.017732795
1786181239.555491686,-0.014915815,-0.004252452,0.994616985,-0.00662056,0.005608363,0.01666753
1786181239.559986830,0.006324419,-0.001566905,0.991443157,-0.002359501,0.005608363,0.017732795
1786181239.565508842,0.01047481,-0.004252452,0.991199017,0.004032086,0.001347305,0.014537003
1786181239.569596052,-0.002220503,-0.005961436,0.989490032,0.000836292,0.000282042,0.00921068
1786181239.575503826,-0.021507611,-0.003764171,0.998523235,0.004032086,-0.000783224,0.014537003
1786181239.579791307,-0.032249801,-0.000834483,1.002917767,0.009358408,-0.000783224,0.020928588
1786181239.585564613,-0.026634565,-0.001322764,0.99266386,0.00509735,0.003477834,0.018798061
1786181239.589599848,-0.007591596,-0.002299327,0.992175579,0.000836292,0.0045431,0.019863326
1786181239.595514774,0.012183795,-0.001078624,0.990222454,0.000836292,0.002412571,0.015602268
1786181239.599726200,0.013892779,-0.004740733,0.989734173,0.004032086,0.001347305,0.014537003
1786181239.605505943,-0.002220503,-0.006937999,0.990710735,-0.000228972,-0.000783224,0.01134121
1786181239.609980822,-0.023216596,-0.005961436,0.999743938,-0.001294237,-0.001848487,0.013471738
1786181239.615525723,-0.032249801,-0.001811046,1.003650188,-0.003424766,0.003477834,0.012406472
1786181239.619870663,-0.026390424,-0.001811046,0.993152142,-0.010881618,0.008804156,0.015602268
1786181239.625502586,-0.010033002,-0.002055186,0.994128704,0.001901557,0.003477834,0.020928588
1786181239.629722118,0.007056841,0.000142079,0.990710735,0.000836292,0.0045431,0.015602268
1786181239.635601521,0.007300982,-0.003031749,0.993640423,0.000836292,0.002412571,0.013471738
1786181239.639731407,-0.003685346,-0.004740733,0.988025188,0.002966821,-0.001848487,0.012406472
1786181239.645518541,-0.017357221,-0.005717296,0.997058392,-0.000228972,-0.000783224,0.013471738
1786181239.649715900,-0.022972455,-0.000346202,0.999255657,0.000836292,0.002412571,0.015602268
1786181239.655504227,-0.018333783,-0.004984874,0.992175579,-0.008751089,0.005608363,0.01666753
1786181239.659704447,-0.006126753,-0.004740733,0.99266386,-0.000228972,0.003477834,0.015602268
1786181239.665557384,0.003150591,-0.004008311,0.993396282,0.001901557,0.001347305,0.020928588
1786181239.669971943,-0.000267378,-0.002055186,0.996081829,0.000836292,0.002412571,0.012406472
1786181239.675524473,-0.012718549,-0.004252452,0.992175579,0.002966821,0.001347305,0.014537003
1786181239.679662228,-0.023949018,-0.002787608,0.997790813,0.000836292,0.000282042,0.014537003
1786181239.685502768,-0.023460736,-0.000834483,0.998767376,-0.002359501,0.002412571,0.017732795
1786181239.689845800,-0.015892377,-0.001811046,0.991931438,-0.001294237,0.0045431,0.01666753
1786181239.695496321,-0.003441206,-0.005473155,0.990710735,0.000836292,0.002412571,0.017732795
1786181239.699852467,0.005836138,-0.000346202,0.993396282,0.008293143,0.001347305,0.021993853
1786181239.705496550,0.003394732,-0.001811046,0.993396282,0.000836292,0.002412571,0.01134121
1786181239.709922791,-0.008812299,-0.005961436,0.991443157,0.004032086,0.001347305,0.014537003
1786181239.715580463,-0.019554486,-0.004984874,0.996081829,-0.001294237,0.001347305,0.01666753
1786181239.719599009,-0.02101933,-0.00352003,0.999499798,0.000836292,0.002412571,0.018798061
1786181239.725500584,-0.017357221,-0.003764171,0.994616985,0.002966821,0.003477834,0.020928588
1786181239.730044603,-0.011497846,-0.004008311,0.991931438,0.006162615,0.002412571,0.019863326
1786181239.735226393,-0.003441206,-0.000590343,0.995349407,0.00509735,0.000282042,0.017732795
1786181239.739772320,-0.002952924,-0.000834483,0.994861126,-0.00449003,0.0045431,0.00921068
1786181239.745519400,-0.008324018,-0.003031749,0.990222454,-0.007685823,0.0045431,0.012406472
1786181239.749662161,-0.010765424,-0.004496593,0.99266386,-0.00449003,0.001347305,0.015602268
1786181239.755584717,-0.011741986,-0.00352003,0.998523235,-0.005555294,0.002412571,0.014537003
1786181239.759669304,-0.011741986,-0.004496593,0.992908001,-0.001294237,0.003477834,0.015602268
1786181239.765507221,-0.010521283,-0.006449718,0.993152142,-0.002359501,0.003477834,0.013471738
1786181239.770219326,-0.006615034,-0.001566905,0.997058392,0.001901557,0.000282042,0.019863326
1786181239.775509834,-0.005638471,-0.001322764,0.993640423,-0.00449003,0.005608363,0.014537003
1786181239.779864073,-0.00905644,-0.004008311,0.990710735,-0.002359501,0.002412571,0.017732795
1786181239.785630226,-0.012718549,-0.005473155,0.991931438,-0.000228972,-0.001848487,0.017732795
1786181239.789687395,-0.015404096,-0.003275889,0.997058392,-0.005555294,0.003477834,0.014537003
1786181239.795495033,-0.016380658,-0.004496593,0.995105267,0.00509735,0.003477834,0.013471738
1786181239.799818993,-0.015404096,-0.00352003,0.993152142,-0.00449003,0.0045431,0.01666753
1786181239.805515289,-0.008324018,-0.000346202,0.997058392,0.004032086,0.002412571,0.018798061
1786181239.809724092,-0.000023237,0.001118642,0.993152142,0.001901557,0.0045431,0.019863326
1786181239.815558195,0.000220904,-0.004008311,0.989001751,0.000836292,0.0045431,0.015602268
1786181239.819804668,-0.002708784,-0.006693858,0.989245892,-0.000228972,0.000282042,0.017732795
1786181239.825294018,-0.01296269,-0.004984874,0.999011517,0.001901557,0.001347305,0.01666753
1786181239.829663515,-0.020531049,-0.004496593,0.997790813,0.004032086,0.001347305,0.014537003
1786181239.835502863,-0.023460736,-0.005473155,0.995593548,0.00509735,0.000282042,0.018798061
1786181239.839733839,-0.015159955,-0.000102061,0.998767376,0.000836292,0.003477834,0.019863326
1786181239.845544100,-0.004173628,0.002827626,0.992908001,-0.003424766,0.005608363,0.018798061
1786181239.849778414,0.000709185,-0.004252452,0.989490032,0.004032086,0.002412571,0.01666753
1786181239.855511665,-0.001732221,-0.004740733,0.98875761,-0.003424766,0.001347305,0.013471738
1786181239.859594584,-0.008079877,-0.004252452,0.997546673,-0.001294237,0.001347305,0.012406472
1786181239.865508318,-0.016380658,-0.004252452,0.995593548,0.000836292,0.002412571,0.017732795
1786181239.869642258,-0.019798627,-0.004496593,0.994128704,0.006162615,0.000282042,0.018798061
1786181239.875505686,-0.011986127,-0.001322764,0.99657011,0.00509735,0.001347305,0.019863326
1786181239.880179644,-0.000999799,-0.002055186,0.991931438,-0.001294237,0.0045431,0.014537003
1786181239.885556698,0.000220904,-0.004984874,0.98875761,-0.001294237,0.003477834,0.017732795
1786181239.889610052,-0.006126753,-0.008402843,0.991199017,-0.001294237,0.001347305,0.01666753
1786181239.895501614,-0.01686894,-0.003031749,1.00023222,0.007227879,-0.000783224,0.01666753
1786181239.899815321,-0.026634565,-0.001078624,0.999255657,0.002966821,0.003477834,0.015602268
1786181239.905531645,-0.025413861,-0.003031749,0.993640423,-0.002359501,0.0045431,0.018798061
1786181239.909790039,-0.008324018,0.001362782,0.995349407,-0.00662056,0.005608363,0.018798061
1786181239.915549755,0.008521685,-0.000590343,0.989978313,0.004032086,0.0045431,0.020928588
1786181239.919618607,0.012672076,-0.007914562,0.986072063,-0.003424766,0.0045431,0.013471738
1786181239.925498962,-0.000755659,-0.008158702,0.990222454,-0.001294237,0.000282042,0.014537003
1786181239.929688692,-0.018333783,-0.005229014,1.002917767,-0.000228972,0.001347305,0.014537003
1786181239.935500383,-0.031517379,-0.002787608,1.000720501,-0.003424766,0.0045431,0.015602268
1786181239.939920187,-0.032249801,-0.002299327,0.99632597,-0.002359501,0.005608363,0.017732795
1786181239.945511818,-0.013450971,-0.000834483,0.994616985,-0.001294237,0.0045431,0.020928588
1786181239.949715137,0.005347857,0.000142079,0.994128704,-0.001294237,0.005608363,0.013471738
1786181239.955607653,0.012183795,-0.004496593,0.98485136,0.004032086,0.002412571,0.017732795
1786181239.959649324,0.000220904,-0.005473155,0.991443157,-0.000228972,-0.000783224,0.01134121
1786181239.965501070,-0.01686894,-0.004252452,0.999988079,-0.003424766,0.000282042,0.01666753
1786181239.969648361,-0.02858769,-0.002299327,0.998523235,0.004032086,0.002412571,0.013471738
1786181239.975494623,-0.02492558,-0.004740733,0.994616985,-0.009816352,0.006673628,0.015602268
1786181239.980080366,-0.005882612,-0.002299327,0.993640423,-0.005555294,0.006673628,0.018798061
1786181239.985500336,0.011207232,-0.001322764,0.992175579,-0.007685823,0.007738894,0.014537003
1786181239.989889622,0.008765826,-0.00742628,0.987536907,-0.005555294,0.0045431,0.012406472
1786181239.995515108,-0.00905644,-0.005717296,0.993152142,-0.001294237,-0.000783224,0.01134121
1786181239.999796391,-0.026878705,-0.003031749,1.001697063,0.001901557,0.001347305,0.015602268
1786181240.005504847,-0.033714645,0.000142079,1.001208782,0.007227879,0.003477834,0.015602268
1786181240.009926081,-0.02492558,-0.003031749,0.990222454,-0.005555294,0.0045431,0.019863326
1786181240.015368223,-0.001976362,-0.000346202,0.994128704,0.000836292,0.0045431,0.017732795
1786181240.019589901,0.015357623,-0.000834483,0.989734173,0.006162615,0.003477834,0.020928588
1786181240.025500059,0.011207232,-0.007670421,0.98875761,0.008293143,-0.000783224,0.01666753
1786181240.029886484,-0.007347456,-0.006205577,0.991443157,0.006162615,-0.001848487,0.014537003
1786181240.035289049,-0.026390424,-0.005473155,1.002673626,-0.00449003,0.002412571,0.010275945
1786181240.039820671,-0.031273238,-0.001078624,0.998279095,-0.001294237,0.003477834,0.013471738
1786181240.045522690,-0.022484174,-0.004740733,0.991443157,-0.00662056,0.0045431,0.015602268
1786181240.049746990,-0.003197065,-0.000590343,0.99241972,0.00509735,0.000282042,0.019863326
1786181240.055504799,0.01023067,-0.001811046,0.990954876,-0.001294237,0.002412571,0.019863326
1786181240.059746265,0.003394732,-0.004252452,0.992175579,0.004032086,0.001347305,0.012406472
1786181240.065498829,-0.014427533,-0.005473155,0.99266386,-0.00449003,0.001347305,0.013471738
1786181240.069668770,-0.025902143,-0.001566905,1.002185345,-0.002359501,0.003477834,0.012406472
1786181240.075522423,-0.02492558,-0.000834483,0.99657011,-0.005555294,0.008804156,0.015602268
1786181240.079887152,-0.011497846,-0.004984874,0.989001751,-0.002359501,0.005608363,0.021993853
1786181240.085605145,0.003883013,-0.002787608,0.991931438,-0.000228972,0.003477834,0.020928588
1786181240.089608431,0.012183795,-0.003031749,0.989978313,0.002966821,0.002412571,0.019863326
1786181240.095504522,-0.00124394,-0.004740733,0.99241972,0.00509735,0.000282042,0.01134121
1786181240.099824667,-0.020042768,-0.006449718,0.993152142,-0.002359501,-0.000783224,0.015602268
1786181240.105510473,-0.029320111,-0.00352003,1.003406048,0.009358408,-0.001848487,0.01666753
1786181240.109793186,-0.025902143,-0.000834483,0.998523235,-0.00449003,0.006673628,0.015602268
1786181240.115496397,-0.014183393,-0.004252452,0.989734173,0.001901557,0.005608363,0.021993853
1786181240.119668961,0.001929888,-0.001811046,0.993152142,-0.002359501,0.003477834,0.017732795
1786181240.125502825,0.01023067,0.00038622,0.99241972,0.004032086,0.002412571,0.017732795
1786181240.129605293,0.000953326,-0.003031749,0.99241972,0.004032086,0.001347305,0.015602268
1786181240.135508537,-0.012718549,-0.005717296,0.991443157,-0.001294237,0.001347305,0.01666753
1786181240.139503956,-0.019554486,-0.003764171,0.998034954,-0.001294237,0.002412571,0.015602268
1786181240.145500422,-0.018577924,-0.003764171,0.997058392,-0.008751089,0.006673628,0.01666753
1786181240.149814606,-0.014183393,-0.006449718,0.990222454,0.000836292,0.002412571,0.013471738
1786181240.155504465,-0.008079877,-0.003031749,0.99657011,-0.005555294,0.002412571,0.017732795
1786181240.159677505,-0.003197065,-0.001322764,0.995593548,0.002966821,0.002412571,0.014537003
1786181240.165519714,-0.007591596,-0.000346202,0.994616985,0.004032086,0.001347305,0.018798061
1786181240.169848680,-0.01296269,-0.005473155,0.990466595,-0.000228972,0.001347305,0.014537003
1786181240.175524950,-0.016136518,-0.002299327,0.998523235,-0.000228972,0.002412571,0.019863326
1786181240.179514170,-0.011741986,-0.00352003,0.996081829,-0.002359501,0.006673628,0.013471738
1786181240.185276031,-0.008568158,-0.004984874,0.989245892,-0.005555294,0.0045431,0.013471738
1786181240.189625740,-0.004173628,-0.002787608,0.996814251,0.004032086,0.002412571,0.018798061
1786181240.195514917,-0.001732221,-0.002299327,0.99241972,-0.000228972,0.003477834,0.012406472
1786181240.199897051,-0.007591596,-0.001566905,0.995593548,-0.00662056,0.003477834,0.01134121
1786181240.205492020,-0.01296269,-0.006937999,0.987781048,-0.003424766,0.001347305,0.013471738
1786181240.209763288,-0.016380658,-0.003031749,0.999499798,-0.00662056,0.002412571,0.013471738
1786181240.215494871,-0.017601361,-0.002543468,0.99657011,-0.00449003,0.0045431,0.014537003
1786181240.219804764,-0.01686894,-0.005473155,0.993152142,0.004032086,0.002412571,0.017732795
1786181240.225497007,-0.011497846,-0.000102061,0.994616985,-0.000228972,0.002412571,0.017732795
1786181240.229698420,-0.003685346,0.00038622,0.996081829,0.001901557,0.003477834,0.018798061
1786181240.235520363,-0.000999799,-0.000346202,0.989001751,-0.001294237,0.0045431,0.013471738
1786181240.239870310,-0.002220503,-0.006937999,0.987292767,0.00509735,0.001347305,0.018798061
1786181240.245348930,-0.008079877,-0.004008311,0.998034954,-0.000228972,0.001347305,0.017732795
1786181240.249748707,-0.013939252,-0.004496593,0.996814251,0.006162615,0.000282042,0.018798061
1786181240.255498409,-0.019310346,-0.005473155,0.995349407,0.008293143,0.002412571,0.020928588
1786181240.259740114,-0.018089643,-0.003031749,0.996081829,-0.003424766,0.003477834,0.01666753
1786181240.265511036,-0.008079877,0.000874501,0.997058392,-0.001294237,0.003477834,0.017732795
1786181240.269863605,-0.003685346,-0.001811046,0.989978313,0.001901557,0.003477834,0.018798061
1786181240.275579453,-0.002952924,-0.005717296,0.98875761,0.001901557,0.001347305,0.01666753
1786181240.280013800,-0.008812299,-0.004984874,0.995349407,0.006162615,-0.000783224,0.01666753
1786181240.285528898,-0.015892377,-0.002543468,0.997546673,-0.000228972,0.003477834,0.012406472
1786181240.289510250,-0.018822065,-0.004496593,0.993152142,0.008293143,0.002412571,0.018798061
1786181240.295372725,-0.015892377,-0.000590343,0.995837688,0.000836292,0.003477834,0.018798061
1786181240.299633026,-0.002952924,-0.001322764,0.994128704,0.00509735,0.0045431,0.018798061
1786181240.305502892,0.004127154,-0.004496593,0.989734173,0.001901557,0.003477834,0.017732795
1786181240.309919596,0.001197466,-0.008158702,0.986072063,-0.005555294,0.003477834,0.013471738
1786181240.315503120,-0.010033002,-0.007182139,0.998279095,0.000836292,-0.000783224,0.013471738
1786181240.319744825,-0.023216596,-0.001078624,1.000720501,-0.001294237,0.003477834,0.012406472
1786181240.325526237,-0.030296674,-0.001811046,0.996081829,-0.008751089,0.006673628,0.012406472
1786181240.329713583,-0.021751752,-0.001078624,0.997058392,-0.007685823,0.005608363,0.019863326
1786181240.335538149,-0.003685346,0.003071767,0.993152142,-0.000228972,0.003477834,0.019863326
1786181240.339622021,0.01047481,-0.002787608,0.989978313,-0.002359501,0.0045431,0.017732795
1786181240.345509529,0.008765826,-0.006205577,0.984118938,-0.000228972,0.001347305,0.014537003
1786181240.349603891,-0.004906049,-0.006937999,0.997058392,0.007227879,-0.003979016,0.018798061
1786181240.355496883,-0.019798627,-0.003031749,0.999499798,0.002966821,0.001347305,0.012406472
1786181240.359803200,-0.029075971,-0.003764171,0.99632597,-0.002359501,0.002412571,0.014537003
